date	time	group	subject	build	blocknum	trialnum	blockcode	trialcode	pretrialpause	posttrialpause	windowcenter	trialduration	trialtimeout	blocktimeout	response	correct	latency	inwindow	stimulusnumber1	stimulusitem1	stimulusvpos1	stimulushpos1	stimulusonset1	stimulusnumber2	stimulusitem2	stimulusvpos2	stimulushpos2	stimulusonset2	stimulusnumber3	stimulusitem3	stimulusvpos3	stimulushpos3	stimulusonset3
011218	00:49:42	1	1	4.0.10.0	1	1	NineRightJ	NineRightJ_xuexi	0	0	0	1000	0	0	0	0	0	0	1	+	50pct	50pct	0	9	血	50pct	50pct	1649	5	仿	50pct	50pct	1649
011218	00:49:42	1	1	4.0.10.0	1	2	NineRightJ	NineRightJ_xuexi	0	0	0	1000	0	0	0	0	0	0	1	+	50pct	50pct	0	2	价	50pct	50pct	1649	2	价	50pct	50pct	1649
011218	00:49:42	1	1	4.0.10.0	1	3	NineRightJ	NineRightJ_xuexi	0	0	0	1000	0	0	0	0	0	0	1	+	50pct	50pct	0	7	伪	50pct	50pct	1649	6	伙	50pct	50pct	1649
011218	00:49:42	1	1	4.0.10.0	1	4	NineRightJ	NineRightJ_xuexi	0	0	0	1000	0	0	0	0	0	0	1	+	50pct	50pct	0	3	华	50pct	50pct	1649	9	血	50pct	50pct	1649
011218	00:49:42	1	1	4.0.10.0	1	5	NineRightJ	NineRightJ_xuexi	0	0	0	1000	0	0	0	0	0	0	1	+	50pct	50pct	0	1	伤	50pct	50pct	1649	10	向	50pct	50pct	1649
011218	00:49:42	1	1	4.0.10.0	1	6	NineRightJ	NineRightJ_xuexi	0	0	0	1000	0	0	0	0	0	0	1	+	50pct	50pct	0	4	仰	50pct	50pct	1652	1	伤	50pct	50pct	1652
011218	00:49:42	1	1	4.0.10.0	1	7	NineRightJ	NineRightJ_xuexi	0	0	0	1000	0	0	0	0	0	0	1	+	50pct	50pct	0	6	伙	50pct	50pct	1649	8	自	50pct	50pct	1649
011218	00:49:42	1	1	4.0.10.0	1	8	NineRightJ	NineRightJ_xuexi	0	0	0	1000	0	0	0	0	0	0	1	+	50pct	50pct	0	10	向	50pct	50pct	1649	4	仰	50pct	50pct	1649
011218	00:49:42	1	1	4.0.10.0	1	9	NineRightJ	NineRightJ_xuexi	0	0	0	1000	0	0	0	0	0	0	1	+	50pct	50pct	0	8	自	50pct	50pct	1649	7	伪	50pct	50pct	1649
011218	00:49:42	1	1	4.0.10.0	1	10	NineRightJ	NineRightJ_xuexi	0	0	0	1000	0	0	0	0	0	0	1	+	50pct	50pct	0	5	仿	50pct	50pct	1649	3	华	50pct	50pct	1649
011218	00:49:42	1	1	4.0.10.0	1	11	NineRightJ	NineRightJ_xuexiceshi	0	0	0	0	0	0	Ctrl+'Q'	1	20752	0	5	仿	50pct	50pct	0	0	0	0	0	0	0	0	0	0	0
011218	00:51:30	1	1	4.0.10.0	1	1	FiveLeftF	FiveLeftF_xuexi	0	0	0	600	0	0	0	0	0	0	1	+	50pct	50pct	0	7	扩	75	50	1649	10	耳	50pct	50pct	1649
011218	00:51:30	1	1	4.0.10.0	1	2	FiveLeftF	FiveLeftF_xuexi	0	0	0	600	0	0	0	0	0	0	1	+	50pct	50pct	0	5	寺	75	50	1649	2	刑	50pct	50pct	1649
011218	00:51:30	1	1	4.0.10.0	1	3	FiveLeftF	FiveLeftF_xuexi	0	0	0	600	0	0	0	0	0	0	1	+	50pct	50pct	1	3	动	75	50	1649	4	扛	50pct	50pct	1649
011218	00:51:30	1	1	4.0.10.0	1	4	FiveLeftF	FiveLeftF_xuexi	0	0	0	600	0	0	0	0	0	0	1	+	50pct	50pct	0	1	式	75	50	1649	1	式	50pct	50pct	1649
011218	00:51:30	1	1	4.0.10.0	1	5	FiveLeftF	FiveLeftF_xuexi	0	0	0	600	0	0	Ctrl+'Q'	1	0	0	1	+	50pct	50pct	0	9	场	75	50	1649	7	扩	50pct	50pct	1649
011218	00:51:50	1	1	4.0.10.0	1	1	NineLeftF	NineLeftF_xuexi	0	0	0	1000	0	0	0	0	0	0	1	+	50pct	50pct	0	6	伍	50pct	50pct	1649	8	优	50pct	50pct	1649
011218	00:51:50	1	1	4.0.10.0	1	2	NineLeftF	NineLeftF_xuexi	0	0	0	1000	0	0	0	0	0	0	1	+	50pct	50pct	0	2	先	50pct	50pct	1649	7	伏	50pct	50pct	1649
011218	00:51:50	1	1	4.0.10.0	1	3	NineLeftF	NineLeftF_xuexi	0	0	0	1000	0	0	0	0	0	0	1	+	50pct	50pct	0	7	伏	50pct	50pct	1649	9	伐	50pct	50pct	1649
011218	00:51:50	1	1	4.0.10.0	1	4	NineLeftF	NineLeftF_xuexi	0	0	0	1000	0	0	0	0	0	0	1	+	50pct	50pct	0	8	优	50pct	50pct	1649	2	先	50pct	50pct	1649
011218	00:51:50	1	1	4.0.10.0	1	5	NineLeftF	NineLeftF_xuexi	0	0	0	1000	0	0	0	0	0	0	1	+	50pct	50pct	0	4	乒	50pct	50pct	1649	6	伍	50pct	50pct	1649
011218	00:51:50	1	1	4.0.10.0	1	6	NineLeftF	NineLeftF_xuexi	0	0	0	1000	0	0	0	0	0	0	1	+	50pct	50pct	0	5	休	50pct	50pct	1649	4	乒	50pct	50pct	1649
011218	00:51:50	1	1	4.0.10.0	1	7	NineLeftF	NineLeftF_xuexi	0	0	0	1000	0	0	0	0	0	0	1	+	50pct	50pct	0	3	丢	50pct	50pct	1649	1	朱	50pct	50pct	1649
011218	00:51:50	1	1	4.0.10.0	1	8	NineLeftF	NineLeftF_xuexi	0	0	0	1000	0	0	0	0	0	0	1	+	50pct	50pct	0	1	朱	50pct	50pct	1649	10	延	50pct	50pct	1649
011218	00:51:50	1	1	4.0.10.0	1	9	NineLeftF	NineLeftF_xuexi	0	0	0	1000	0	0	0	0	0	0	1	+	50pct	50pct	0	9	伐	50pct	50pct	1651	5	休	50pct	50pct	1651
011218	00:51:50	1	1	4.0.10.0	1	10	NineLeftF	NineLeftF_xuexi	0	0	0	1000	0	0	0	0	0	0	1	+	50pct	50pct	0	10	延	50pct	50pct	1649	3	丢	50pct	50pct	1649
011218	00:51:50	1	1	4.0.10.0	1	11	NineLeftF	NineLeftF_xuexiceshi	0	0	0	0	0	0	33	1	42	0	7	伏	50pct	50pct	0	0	0	0	0	0	0	0	0	0	0
011218	00:51:50	1	1	4.0.10.0	1	12	NineLeftF	NineLeftF_buxueceshi	0	0	0	0	0	0	36	0	28	0	2	NineLeftF_xuexiceshi	50pct	50pct	0	0	0	0	0	0	0	0	0	0	0
011218	00:51:50	1	1	4.0.10.0	1	13	NineLeftF	NineLeftF_buxueceshi	0	0	0	0	0	0	33	1	43	0	1	NineLeftF_buxueceshi	50pct	50pct	0	0	0	0	0	0	0	0	0	0	0
011218	00:51:50	1	1	4.0.10.0	1	14	NineLeftF	NineLeftF_buxueceshi	0	0	0	0	0	0	33	1	55	0	2	NineLeftF_xuexiceshi	50pct	50pct	0	0	0	0	0	0	0	0	0	0	0
011218	00:51:50	1	1	4.0.10.0	1	15	NineLeftF	NineLeftF_buxueceshi	0	0	0	0	0	0	33	1	58	0	1	NineLeftF_buxueceshi	50pct	50pct	0	0	0	0	0	0	0	0	0	0	0
011218	00:51:50	1	1	4.0.10.0	1	16	NineLeftF	NineLeftF_xuexiceshi	0	0	0	0	0	0	36	0	51	0	5	休	50pct	50pct	0	0	0	0	0	0	0	0	0	0	0
011218	00:51:50	1	1	4.0.10.0	1	17	NineLeftF	NineLeftF_xuexiceshi	0	0	0	0	0	0	33	1	34	0	1	朱	50pct	50pct	0	0	0	0	0	0	0	0	0	0	0
011218	00:51:50	1	1	4.0.10.0	1	18	NineLeftF	NineLeftF_buxueceshi	0	0	0	0	0	0	33	1	53	0	2	NineLeftF_xuexiceshi	50pct	50pct	0	0	0	0	0	0	0	0	0	0	0
011218	00:51:50	1	1	4.0.10.0	1	19	NineLeftF	NineLeftF_buxueceshi	0	0	0	0	0	0	33	1	48	0	1	NineLeftF_buxueceshi	50pct	50pct	0	0	0	0	0	0	0	0	0	0	0
011218	00:51:50	1	1	4.0.10.0	1	20	NineLeftF	NineLeftF_xuexiceshi	0	0	0	0	0	0	33	1	42	0	8	优	50pct	50pct	0	0	0	0	0	0	0	0	0	0	0
011218	00:51:50	1	1	4.0.10.0	1	21	NineLeftF	NineLeftF_buxueceshi	0	0	0	0	0	0	33	1	31	0	1	NineLeftF_buxueceshi	50pct	50pct	0	0	0	0	0	0	0	0	0	0	0
011218	00:51:50	1	1	4.0.10.0	1	22	NineLeftF	NineLeftF_buxueceshi	0	0	0	0	0	0	36	0	42	0	2	NineLeftF_xuexiceshi	50pct	50pct	2	0	0	0	0	0	0	0	0	0	0
011218	00:51:50	1	1	4.0.10.0	1	23	NineLeftF	NineLeftF_xuexiceshi	0	0	0	0	0	0	33	1	62	0	2	先	50pct	50pct	0	0	0	0	0	0	0	0	0	0	0
011218	00:51:50	1	1	4.0.10.0	1	24	NineLeftF	NineLeftF_xuexiceshi	0	0	0	0	0	0	33	1	49	0	3	丢	50pct	50pct	0	0	0	0	0	0	0	0	0	0	0
011218	00:51:50	1	1	4.0.10.0	1	25	NineLeftF	NineLeftF_xuexiceshi	0	0	0	0	0	0	33	1	42	0	9	伐	50pct	50pct	0	0	0	0	0	0	0	0	0	0	0
011218	00:51:50	1	1	4.0.10.0	1	26	NineLeftF	NineLeftF_buxueceshi	0	0	0	0	0	0	33	1	48	0	1	NineLeftF_buxueceshi	50pct	50pct	0	0	0	0	0	0	0	0	0	0	0
011218	00:51:50	1	1	4.0.10.0	1	27	NineLeftF	NineLeftF_buxueceshi	0	0	0	0	0	0	36	0	39	0	2	NineLeftF_xuexiceshi	50pct	50pct	0	0	0	0	0	0	0	0	0	0	0
011218	00:51:50	1	1	4.0.10.0	1	28	NineLeftF	NineLeftF_xuexiceshi	0	0	0	0	0	0	33	1	32	0	6	伍	50pct	50pct	0	0	0	0	0	0	0	0	0	0	0
011218	00:51:50	1	1	4.0.10.0	1	29	NineLeftF	NineLeftF_xuexiceshi	0	0	0	0	0	0	36	0	40	0	4	乒	50pct	50pct	0	0	0	0	0	0	0	0	0	0	0
011218	00:51:50	1	1	4.0.10.0	1	30	NineLeftF	NineLeftF_xuexiceshi	0	0	0	0	0	0	33	1	47	0	10	延	50pct	50pct	0	0	0	0	0	0	0	0	0	0	0
011218	00:52:41	1	1	4.0.10.0	1	1	NineRightJ	NineRightJ_xuexi	0	0	0	1000	0	0	0	0	0	0	1	+	50pct	50pct	0	9	血	50	25	1649	6	伙	50	25	1649
011218	00:52:41	1	1	4.0.10.0	1	2	NineRightJ	NineRightJ_xuexi	0	0	0	1000	0	0	0	0	0	0	1	+	50pct	50pct	0	3	华	50	25	1649	2	价	50	25	1649
011218	00:52:41	1	1	4.0.10.0	1	3	NineRightJ	NineRightJ_xuexi	0	0	0	1000	0	0	0	0	0	0	1	+	50pct	50pct	0	6	伙	50	25	1649	10	向	50	25	1649
011218	00:52:41	1	1	4.0.10.0	1	4	NineRightJ	NineRightJ_xuexi	0	0	0	1000	0	0	0	0	0	0	1	+	50pct	50pct	0	1	伤	50	25	1649	9	血	50	25	1649
011218	00:52:41	1	1	4.0.10.0	1	5	NineRightJ	NineRightJ_xuexi	0	0	0	1000	0	0	Ctrl+'Q'	1	0	0	1	+	50pct	50pct	0	5	仿	50	25	1649	5	仿	50	25	1649
011218	00:53:18	1	1	4.0.10.0	1	1	NineLeftF	NineLeftF_xuexi	0	0	0	1000	0	0	0	0	0	0	1	+	50pct	50pct	0	8	优	50	25	1649	10	延	50	75	1649
011218	00:53:18	1	1	4.0.10.0	1	2	NineLeftF	NineLeftF_xuexi	0	0	0	1000	0	0	0	0	0	0	1	+	50pct	50pct	0	6	伍	50	25	1649	1	朱	50	75	1649
011218	00:53:18	1	1	4.0.10.0	1	3	NineLeftF	NineLeftF_xuexi	0	0	0	1000	0	0	0	0	0	0	1	+	50pct	50pct	0	1	朱	50	25	1649	7	伏	50	75	1649
011218	00:53:18	1	1	4.0.10.0	1	4	NineLeftF	NineLeftF_xuexi	0	0	0	1000	0	0	0	0	0	0	1	+	50pct	50pct	0	7	伏	50	25	1649	9	伐	50	75	1649
011218	00:53:18	1	1	4.0.10.0	1	5	NineLeftF	NineLeftF_xuexi	0	0	0	1000	0	0	0	0	0	0	1	+	50pct	50pct	0	3	丢	50	25	1649	6	伍	50	75	1649
011218	00:53:18	1	1	4.0.10.0	1	6	NineLeftF	NineLeftF_xuexi	0	0	0	1000	0	0	0	0	0	0	1	+	50pct	50pct	0	4	乒	50	25	1649	8	优	50	75	1649
011218	00:53:18	1	1	4.0.10.0	1	7	NineLeftF	NineLeftF_xuexi	0	0	0	1000	0	0	0	0	0	0	1	+	50pct	50pct	0	2	先	50	25	1649	3	丢	50	75	1649
011218	00:53:18	1	1	4.0.10.0	1	8	NineLeftF	NineLeftF_xuexi	0	0	0	1000	0	0	0	0	0	0	1	+	50pct	50pct	0	5	休	50	25	1649	4	乒	50	75	1649
011218	00:53:18	1	1	4.0.10.0	1	9	NineLeftF	NineLeftF_xuexi	0	0	0	1000	0	0	0	0	0	0	1	+	50pct	50pct	0	9	伐	50	25	1649	5	休	50	75	1649
011218	00:53:18	1	1	4.0.10.0	1	10	NineLeftF	NineLeftF_xuexi	0	0	0	1000	0	0	0	0	0	0	1	+	50pct	50pct	0	10	延	50	25	1649	2	先	50	75	1649
011218	00:53:18	1	1	4.0.10.0	1	11	NineLeftF	NineLeftF_xuexiceshi	0	0	0	0	0	0	33	1	26	0	5	休	50	25	0	0	0	0	0	0	0	0	0	0	0
011218	00:53:18	1	1	4.0.10.0	1	12	NineLeftF	NineLeftF_buxueceshi	0	0	0	0	0	0	33	1	40	0	1	NineLeftF_buxueceshi	50pct	50pct	0	0	0	0	0	0	0	0	0	0	0
011218	00:53:18	1	1	4.0.10.0	1	13	NineLeftF	NineLeftF_buxueceshi	0	0	0	0	0	0	36	0	55	0	2	NineLeftF_xuexiceshi	50pct	50pct	0	0	0	0	0	0	0	0	0	0	0
011218	00:53:18	1	1	4.0.10.0	1	14	NineLeftF	NineLeftF_xuexiceshi	0	0	0	0	0	0	33	1	18	0	9	伐	50	25	0	0	0	0	0	0	0	0	0	0	0
011218	00:53:18	1	1	4.0.10.0	1	15	NineLeftF	NineLeftF_buxueceshi	0	0	0	0	0	0	33	1	36	0	1	NineLeftF_buxueceshi	50pct	50pct	0	0	0	0	0	0	0	0	0	0	0
011218	00:53:18	1	1	4.0.10.0	1	16	NineLeftF	NineLeftF_buxueceshi	0	0	0	0	0	0	33	1	24	0	2	NineLeftF_xuexiceshi	50pct	50pct	0	0	0	0	0	0	0	0	0	0	0
011218	00:53:18	1	1	4.0.10.0	1	17	NineLeftF	NineLeftF_xuexiceshi	0	0	0	0	0	0	33	1	35	0	6	伍	50	25	0	0	0	0	0	0	0	0	0	0	0
011218	00:53:18	1	1	4.0.10.0	1	18	NineLeftF	NineLeftF_buxueceshi	0	0	0	0	0	0	33	1	53	0	2	NineLeftF_xuexiceshi	50pct	50pct	0	0	0	0	0	0	0	0	0	0	0
011218	00:53:18	1	1	4.0.10.0	1	19	NineLeftF	NineLeftF_buxueceshi	0	0	0	0	0	0	33	1	36	0	1	NineLeftF_buxueceshi	50pct	50pct	0	0	0	0	0	0	0	0	0	0	0
011218	00:53:18	1	1	4.0.10.0	1	20	NineLeftF	NineLeftF_xuexiceshi	0	0	0	0	0	0	33	1	41	0	8	优	50	25	0	0	0	0	0	0	0	0	0	0	0
011218	00:53:18	1	1	4.0.10.0	1	21	NineLeftF	NineLeftF_xuexiceshi	0	0	0	0	0	0	36	0	34	0	7	伏	50	25	1	0	0	0	0	0	0	0	0	0	0
011218	00:53:18	1	1	4.0.10.0	1	22	NineLeftF	NineLeftF_xuexiceshi	0	0	0	0	0	0	33	1	58	0	1	朱	50	25	0	0	0	0	0	0	0	0	0	0	0
011218	00:53:18	1	1	4.0.10.0	1	23	NineLeftF	NineLeftF_xuexiceshi	0	0	0	0	0	0	33	1	32	0	2	先	50	25	1	0	0	0	0	0	0	0	0	0	0
011218	00:53:18	1	1	4.0.10.0	1	24	NineLeftF	NineLeftF_xuexiceshi	0	0	0	0	0	0	33	1	38	0	4	乒	50	25	1	0	0	0	0	0	0	0	0	0	0
011218	00:53:18	1	1	4.0.10.0	1	25	NineLeftF	NineLeftF_buxueceshi	0	0	0	0	0	0	33	1	39	0	1	NineLeftF_buxueceshi	50pct	50pct	0	0	0	0	0	0	0	0	0	0	0
011218	00:53:18	1	1	4.0.10.0	1	26	NineLeftF	NineLeftF_buxueceshi	0	0	0	0	0	0	33	1	39	0	2	NineLeftF_xuexiceshi	50pct	50pct	0	0	0	0	0	0	0	0	0	0	0
011218	00:53:18	1	1	4.0.10.0	1	27	NineLeftF	NineLeftF_xuexiceshi	0	0	0	0	0	0	36	0	34	0	10	延	50	25	0	0	0	0	0	0	0	0	0	0	0
011218	00:53:18	1	1	4.0.10.0	1	28	NineLeftF	NineLeftF_buxueceshi	0	0	0	0	0	0	33	1	49	0	2	NineLeftF_xuexiceshi	50pct	50pct	3	0	0	0	0	0	0	0	0	0	0
011218	00:53:18	1	1	4.0.10.0	1	29	NineLeftF	NineLeftF_xuexiceshi	0	0	0	0	0	0	36	0	44	0	3	丢	50	25	0	0	0	0	0	0	0	0	0	0	0
011218	00:53:18	1	1	4.0.10.0	1	30	NineLeftF	NineLeftF_buxueceshi	0	0	0	0	0	0	36	0	29	0	1	NineLeftF_buxueceshi	50pct	50pct	0	0	0	0	0	0	0	0	0	0	0
011218	00:54:56	1	1	4.0.10.0	1	1	NineRightJ	NineRightJ_xuexi	0	0	0	1000	0	0	0	0	0	0	1	+	50pct	50pct	0	3	华	50	25	1649	10	向	50	75	1649
011218	00:54:56	1	1	4.0.10.0	1	2	NineRightJ	NineRightJ_xuexi	0	0	0	1000	0	0	0	0	0	0	1	+	50pct	50pct	0	7	伪	50	25	1651	5	仿	50	75	1651
011218	00:54:56	1	1	4.0.10.0	1	3	NineRightJ	NineRightJ_xuexi	0	0	0	1000	0	0	0	0	0	0	1	+	50pct	50pct	0	4	仰	50	25	1649	1	伤	50	75	1649
011218	00:54:56	1	1	4.0.10.0	1	4	NineRightJ	NineRightJ_xuexi	0	0	0	1000	0	0	0	0	0	0	1	+	50pct	50pct	0	6	伙	50	25	1649	8	自	50	75	1649
011218	00:54:56	1	1	4.0.10.0	1	5	NineRightJ	NineRightJ_xuexi	0	0	0	1000	0	0	0	0	0	0	1	+	50pct	50pct	0	8	自	50	25	1649	3	华	50	75	1649
011218	00:54:56	1	1	4.0.10.0	1	6	NineRightJ	NineRightJ_xuexi	0	0	0	1000	0	0	0	0	0	0	1	+	50pct	50pct	0	1	伤	50	25	1649	9	血	50	75	1649
011218	00:54:56	1	1	4.0.10.0	1	7	NineRightJ	NineRightJ_xuexi	0	0	0	1000	0	0	0	0	0	0	1	+	50pct	50pct	0	10	向	50	25	1649	7	伪	50	75	1649
011218	00:54:56	1	1	4.0.10.0	1	8	NineRightJ	NineRightJ_xuexi	0	0	0	1000	0	0	0	0	0	0	1	+	50pct	50pct	0	5	仿	50	25	1649	4	仰	50	75	1649
011218	00:54:56	1	1	4.0.10.0	1	9	NineRightJ	NineRightJ_xuexi	0	0	0	1000	0	0	0	0	0	0	1	+	50pct	50pct	0	9	血	50	25	1649	6	伙	50	75	1649
011218	00:54:56	1	1	4.0.10.0	1	10	NineRightJ	NineRightJ_xuexi	0	0	0	1000	0	0	0	0	0	0	1	+	50pct	50pct	0	2	价	50	25	1649	2	价	50	75	1649
011218	00:54:56	1	1	4.0.10.0	1	11	NineRightJ	NineRightJ_buxueceshi	0	0	0	0	0	0	36	1	36	0	1	NineRightJ_buxueceshi	50pct	50pct	0	0	0	0	0	0	0	0	0	0	0
011218	00:54:56	1	1	4.0.10.0	1	12	NineRightJ	NineRightJ_xuexiceshi	0	0	0	0	0	0	36	1	57	0	8	自	50	25	0	0	0	0	0	0	0	0	0	0	0
011218	00:54:56	1	1	4.0.10.0	1	13	NineRightJ	NineRightJ_buxueceshi	0	0	0	0	0	0	36	1	44	0	2	NineRightJ_xuexiceshi	50pct	50pct	0	0	0	0	0	0	0	0	0	0	0
011218	00:54:56	1	1	4.0.10.0	1	14	NineRightJ	NineRightJ_xuexiceshi	0	0	0	0	0	0	36	1	27	0	6	伙	50	25	0	0	0	0	0	0	0	0	0	0	0
011218	00:54:56	1	1	4.0.10.0	1	15	NineRightJ	NineRightJ_xuexiceshi	0	0	0	0	0	0	33	0	20	0	9	血	50	25	0	0	0	0	0	0	0	0	0	0	0
011218	00:54:56	1	1	4.0.10.0	1	16	NineRightJ	NineRightJ_xuexiceshi	0	0	0	0	0	0	36	1	38	0	5	仿	50	25	0	0	0	0	0	0	0	0	0	0	0
011218	00:54:56	1	1	4.0.10.0	1	17	NineRightJ	NineRightJ_xuexiceshi	0	0	0	0	0	0	36	1	52	0	4	仰	50	25	0	0	0	0	0	0	0	0	0	0	0
011218	00:54:56	1	1	4.0.10.0	1	18	NineRightJ	NineRightJ_buxueceshi	0	0	0	0	0	0	33	0	30	0	2	NineRightJ_xuexiceshi	50pct	50pct	0	0	0	0	0	0	0	0	0	0	0
011218	00:54:56	1	1	4.0.10.0	1	19	NineRightJ	NineRightJ_buxueceshi	0	0	0	0	0	0	36	1	30	0	1	NineRightJ_buxueceshi	50pct	50pct	0	0	0	0	0	0	0	0	0	0	0
011218	00:54:56	1	1	4.0.10.0	1	20	NineRightJ	NineRightJ_xuexiceshi	0	0	0	0	0	0	36	1	46	0	10	向	50	25	0	0	0	0	0	0	0	0	0	0	0
011218	00:54:56	1	1	4.0.10.0	1	21	NineRightJ	NineRightJ_xuexiceshi	0	0	0	0	0	0	36	1	36	0	7	伪	50	25	0	0	0	0	0	0	0	0	0	0	0
011218	00:54:56	1	1	4.0.10.0	1	22	NineRightJ	NineRightJ_buxueceshi	0	0	0	0	0	0	33	0	47	0	2	NineRightJ_xuexiceshi	50pct	50pct	1	0	0	0	0	0	0	0	0	0	0
011218	00:54:56	1	1	4.0.10.0	1	23	NineRightJ	NineRightJ_buxueceshi	0	0	0	0	0	0	36	1	56	0	1	NineRightJ_buxueceshi	50pct	50pct	0	0	0	0	0	0	0	0	0	0	0
011218	00:54:56	1	1	4.0.10.0	1	24	NineRightJ	NineRightJ_xuexiceshi	0	0	0	0	0	0	36	1	49	0	1	伤	50	25	0	0	0	0	0	0	0	0	0	0	0
011218	00:54:56	1	1	4.0.10.0	1	25	NineRightJ	NineRightJ_buxueceshi	0	0	0	0	0	0	33	0	23	0	1	NineRightJ_buxueceshi	50pct	50pct	0	0	0	0	0	0	0	0	0	0	0
011218	00:54:56	1	1	4.0.10.0	1	26	NineRightJ	NineRightJ_xuexiceshi	0	0	0	0	0	0	36	1	23	0	3	华	50	25	1	0	0	0	0	0	0	0	0	0	0
011218	00:54:56	1	1	4.0.10.0	1	27	NineRightJ	NineRightJ_xuexiceshi	0	0	0	0	0	0	33	0	43	0	2	价	50	25	0	0	0	0	0	0	0	0	0	0	0
011218	00:54:56	1	1	4.0.10.0	1	28	NineRightJ	NineRightJ_buxueceshi	0	0	0	0	0	0	33	0	62	0	2	NineRightJ_xuexiceshi	50pct	50pct	0	0	0	0	0	0	0	0	0	0	0
011218	00:54:56	1	1	4.0.10.0	1	29	NineRightJ	NineRightJ_buxueceshi	0	0	0	0	0	0	36	1	46	0	1	NineRightJ_buxueceshi	50pct	50pct	0	0	0	0	0	0	0	0	0	0	0
011218	00:54:56	1	1	4.0.10.0	1	30	NineRightJ	NineRightJ_buxueceshi	0	0	0	0	0	0	36	1	36	0	2	NineRightJ_xuexiceshi	50pct	50pct	0	0	0	0	0	0	0	0	0	0	0
011218	00:55:29	1	1	4.0.10.0	1	1	FiveLeftF	FiveLeftF_xuexi	0	0	0	600	0	0	0	0	0	0	1	+	50pct	50pct	0	8	扫	50	25	1649	8	扫	50	75	1649
011218	00:55:29	1	1	4.0.10.0	1	2	FiveLeftF	FiveLeftF_xuexi	0	0	0	600	0	0	0	0	0	0	1	+	50pct	50pct	0	4	扛	50	25	1649	10	耳	50	75	1649
011218	00:55:29	1	1	4.0.10.0	1	3	FiveLeftF	FiveLeftF_xuexi	0	0	0	600	0	0	0	0	0	0	1	+	50pct	50pct	0	3	动	50	25	1649	9	场	50	75	1649
011218	00:55:29	1	1	4.0.10.0	1	4	FiveLeftF	FiveLeftF_xuexi	0	0	0	600	0	0	0	0	0	0	1	+	50pct	50pct	0	2	刑	50	25	1649	6	吉	50	75	1649
011218	00:55:29	1	1	4.0.10.0	1	5	FiveLeftF	FiveLeftF_xuexi	0	0	0	600	0	0	0	0	0	0	1	+	50pct	50pct	0	7	扩	50	25	1649	5	寺	50	75	1649
011218	00:55:29	1	1	4.0.10.0	1	6	FiveLeftF	FiveLeftF_xuexi	0	0	0	600	0	0	0	0	0	0	1	+	50pct	50pct	0	10	耳	50	25	1649	7	扩	50	75	1649
011218	00:55:29	1	1	4.0.10.0	1	7	FiveLeftF	FiveLeftF_xuexi	0	0	0	600	0	0	0	0	0	0	1	+	50pct	50pct	0	9	场	50	25	1649	3	动	50	75	1649
011218	00:55:29	1	1	4.0.10.0	1	8	FiveLeftF	FiveLeftF_xuexi	0	0	0	600	0	0	0	0	0	0	1	+	50pct	50pct	0	1	式	50	25	1649	1	式	50	75	1649
011218	00:55:29	1	1	4.0.10.0	1	9	FiveLeftF	FiveLeftF_xuexi	0	0	0	600	0	0	0	0	0	0	1	+	50pct	50pct	0	5	寺	50	25	1649	4	扛	50	75	1649
011218	00:55:29	1	1	4.0.10.0	1	10	FiveLeftF	FiveLeftF_xuexi	0	0	0	600	0	0	0	0	0	0	1	+	50pct	50pct	0	6	吉	50	25	1649	2	刑	50	75	1649
011218	00:55:29	1	1	4.0.10.0	1	11	FiveLeftF	FiveLeftF_buxueceshi	0	0	0	0	0	0	33	1	5193	0	1	FiveLeftF_buxueceshi	50pct	50pct	0	0	0	0	0	0	0	0	0	0	0
011218	00:55:29	1	1	4.0.10.0	1	12	FiveLeftF	FiveLeftF_xuexiceshi	0	0	0	0	0	0	33	1	3417	0	9	场	50	25	0	0	0	0	0	0	0	0	0	0	0
011218	00:55:29	1	1	4.0.10.0	1	13	FiveLeftF	FiveLeftF_buxueceshi	0	0	0	0	0	0	33	1	1273	0	2	FiveLeftF_xuexiceshi	50pct	50pct	0	0	0	0	0	0	0	0	0	0	0
011218	00:55:29	1	1	4.0.10.0	1	14	FiveLeftF	FiveLeftF_xuexiceshi	0	0	0	0	0	0	33	1	506	0	7	扩	50	25	0	0	0	0	0	0	0	0	0	0	0
011218	00:55:29	1	1	4.0.10.0	1	15	FiveLeftF	FiveLeftF_xuexiceshi	0	0	0	0	0	0	33	1	363	0	2	刑	50	25	0	0	0	0	0	0	0	0	0	0	0
011218	00:55:29	1	1	4.0.10.0	1	16	FiveLeftF	FiveLeftF_xuexiceshi	0	0	0	0	0	0	33	1	429	0	1	式	50	25	0	0	0	0	0	0	0	0	0	0	0
011218	00:55:29	1	1	4.0.10.0	1	17	FiveLeftF	FiveLeftF_xuexiceshi	0	0	0	0	0	0	33	1	478	0	3	动	50	25	0	0	0	0	0	0	0	0	0	0	0
011218	00:55:29	1	1	4.0.10.0	1	18	FiveLeftF	FiveLeftF_buxueceshi	0	0	0	0	0	0	Ctrl+'Q'	1	4976	0	2	FiveLeftF_xuexiceshi	50pct	50pct	1	0	0	0	0	0	0	0	0	0	0
011218	01:05:16	1	1	4.0.10.0	1	1	FiveLeftF	FiveLeftF_xuexi	0	0	0	600	0	0	0	0	0	0	1	+	50pct	50pct	0	9	场	50	25	1649	3	动	50	75	1649
011218	01:05:16	1	1	4.0.10.0	1	2	FiveLeftF	FiveLeftF_xuexi	0	0	0	600	0	0	0	0	0	0	1	+	50pct	50pct	0	1	式	50	25	1649	4	扛	50	75	1649
011218	01:05:16	1	1	4.0.10.0	1	3	FiveLeftF	FiveLeftF_xuexi	0	0	0	600	0	0	0	0	0	0	1	+	50pct	50pct	0	8	扫	50	25	1649	6	吉	50	75	1649
011218	01:05:16	1	1	4.0.10.0	1	4	FiveLeftF	FiveLeftF_xuexi	0	0	0	600	0	0	0	0	0	0	1	+	50pct	50pct	0	7	扩	50	25	1649	10	耳	50	75	1649
011218	01:05:16	1	1	4.0.10.0	1	5	FiveLeftF	FiveLeftF_xuexi	0	0	0	600	0	0	0	0	0	0	1	+	50pct	50pct	0	5	寺	50	25	1649	2	刑	50	75	1649
011218	01:05:16	1	1	4.0.10.0	1	6	FiveLeftF	FiveLeftF_xuexi	0	0	0	600	0	0	0	0	0	0	1	+	50pct	50pct	0	3	动	50	25	1649	5	寺	50	75	1649
011218	01:05:16	1	1	4.0.10.0	1	7	FiveLeftF	FiveLeftF_xuexi	0	0	0	600	0	0	0	0	0	0	1	+	50pct	50pct	0	6	吉	50	25	1649	9	场	50	75	1649
011218	01:05:16	1	1	4.0.10.0	1	8	FiveLeftF	FiveLeftF_xuexi	0	0	0	600	0	0	0	0	0	0	1	+	50pct	50pct	0	10	耳	50	25	1649	1	式	50	75	1649
011218	01:05:16	1	1	4.0.10.0	1	9	FiveLeftF	FiveLeftF_xuexi	0	0	0	600	0	0	0	0	0	0	1	+	50pct	50pct	0	2	刑	50	25	1649	8	扫	50	75	1649
011218	01:05:16	1	1	4.0.10.0	1	10	FiveLeftF	FiveLeftF_xuexi	0	0	0	600	0	0	0	0	0	0	1	+	50pct	50pct	0	4	扛	50	25	1649	7	扩	50	75	1649
011218	01:05:16	1	1	4.0.10.0	1	11	FiveLeftF	FiveLeftF_xuexiceshi	0	0	0	0	0	0	36	0	3246	0	2	刑	50	25	2	0	0	0	0	0	0	0	0	0	0
011218	01:05:16	1	1	4.0.10.0	1	12	FiveLeftF	FiveLeftF_buxueceshi	0	0	0	0	0	0	36	0	1799	0	2	至	50pct	50pct	1	0	0	0	0	0	0	0	0	0	0
011218	01:05:16	1	1	4.0.10.0	1	13	FiveLeftF	FiveLeftF_xuexiceshi	0	0	0	0	0	0	36	0	907	0	9	场	50	25	0	0	0	0	0	0	0	0	0	0	0
011218	01:05:16	1	1	4.0.10.0	1	14	FiveLeftF	FiveLeftF_xuexiceshi	0	0	0	0	0	0	36	0	394	0	1	式	50	25	1	0	0	0	0	0	0	0	0	0	0
011218	01:05:16	1	1	4.0.10.0	1	15	FiveLeftF	FiveLeftF_xuexiceshi	0	0	0	0	0	0	36	0	316	0	4	扛	50	25	0	0	0	0	0	0	0	0	0	0	0
011218	01:05:16	1	1	4.0.10.0	1	16	FiveLeftF	FiveLeftF_xuexiceshi	0	0	0	0	0	0	36	0	272	0	8	扫	50	25	0	0	0	0	0	0	0	0	0	0	0
011218	01:05:16	1	1	4.0.10.0	1	17	FiveLeftF	FiveLeftF_xuexiceshi	0	0	0	0	0	0	36	0	308	0	3	动	50	25	0	0	0	0	0	0	0	0	0	0	0
011218	01:05:16	1	1	4.0.10.0	1	18	FiveLeftF	FiveLeftF_buxueceshi	0	0	0	0	0	0	36	0	430	0	10	吐	50pct	50pct	0	0	0	0	0	0	0	0	0	0	0
011218	01:05:16	1	1	4.0.10.0	1	19	FiveLeftF	FiveLeftF_xuexiceshi	0	0	0	0	0	0	36	0	327	0	5	寺	50	25	1	0	0	0	0	0	0	0	0	0	0
011218	01:05:16	1	1	4.0.10.0	1	20	FiveLeftF	FiveLeftF_xuexiceshi	0	0	0	0	0	0	36	0	212	0	7	扩	50	25	0	0	0	0	0	0	0	0	0	0	0
011218	01:05:16	1	1	4.0.10.0	1	21	FiveLeftF	FiveLeftF_buxueceshi	0	0	0	0	0	0	36	0	227	0	9	早	50pct	50pct	0	0	0	0	0	0	0	0	0	0	0
011218	01:05:16	1	1	4.0.10.0	1	22	FiveLeftF	FiveLeftF_buxueceshi	0	0	0	0	0	0	36	0	209	0	4	贞	50pct	50pct	0	0	0	0	0	0	0	0	0	0	0
011218	01:05:16	1	1	4.0.10.0	1	23	FiveLeftF	FiveLeftF_buxueceshi	0	0	0	0	0	0	36	0	205	0	8	当	50pct	50pct	0	0	0	0	0	0	0	0	0	0	0
011218	01:05:16	1	1	4.0.10.0	1	24	FiveLeftF	FiveLeftF_buxueceshi	0	0	0	0	0	0	36	0	195	0	7	尖	50pct	50pct	0	0	0	0	0	0	0	0	0	0	0
011218	01:05:16	1	1	4.0.10.0	1	25	FiveLeftF	FiveLeftF_buxueceshi	0	0	0	0	0	0	36	0	206	0	5	师	50pct	50pct	0	0	0	0	0	0	0	0	0	0	0
011218	01:05:16	1	1	4.0.10.0	1	26	FiveLeftF	FiveLeftF_buxueceshi	0	0	0	0	0	0	36	0	215	0	1	毕	50pct	50pct	0	0	0	0	0	0	0	0	0	0	0
011218	01:05:16	1	1	4.0.10.0	1	27	FiveLeftF	FiveLeftF_xuexiceshi	0	0	0	0	0	0	36	0	199	0	10	耳	50	25	1	0	0	0	0	0	0	0	0	0	0
011218	01:05:16	1	1	4.0.10.0	1	28	FiveLeftF	FiveLeftF_buxueceshi	0	0	0	0	0	0	36	0	203	0	3	此	50pct	50pct	0	0	0	0	0	0	0	0	0	0	0
011218	01:05:16	1	1	4.0.10.0	1	29	FiveLeftF	FiveLeftF_xuexiceshi	0	0	0	0	0	0	36	0	190	0	6	吉	50	25	0	0	0	0	0	0	0	0	0	0	0
011218	01:05:16	1	1	4.0.10.0	1	30	FiveLeftF	FiveLeftF_buxueceshi	0	0	0	0	0	0	36	0	199	0	6	尘	50pct	50pct	1	0	0	0	0	0	0	0	0	0	0
011218	01:16:04	1	1	4.0.10.0	1	1	NineLeftF	NineLeftF_xuexi	0	0	0	1000	0	0	0	0	0	0	1	+	50pct	50pct	0	9	伐	50	25	1649	1	问	50	75	1649
011218	01:16:04	1	1	4.0.10.0	1	2	NineLeftF	NineLeftF_xuexi	0	0	0	1000	0	0	0	0	0	0	1	+	50pct	50pct	0	8	优	50	25	1649	7	设	50	75	1649
011218	01:16:04	1	1	4.0.10.0	1	3	NineLeftF	NineLeftF_xuexi	0	0	0	1000	0	0	0	0	0	0	1	+	50pct	50pct	0	6	伍	50	25	1652	2	闯	50	75	1652
011218	01:16:04	1	1	4.0.10.0	1	4	NineLeftF	NineLeftF_xuexi	0	0	0	1000	0	0	0	0	0	0	1	+	50pct	50pct	0	4	乒	50	25	1649	6	守	50	75	1649
011218	01:16:04	1	1	4.0.10.0	1	5	NineLeftF	NineLeftF_xuexi	0	0	0	1000	0	0	0	0	0	0	1	+	50pct	50pct	0	3	丢	50	25	1649	10	那	50	75	1649
011218	01:16:04	1	1	4.0.10.0	1	6	NineLeftF	NineLeftF_xuexi	0	0	0	1000	0	0	0	0	0	0	1	+	50pct	50pct	0	7	伏	50	25	1651	8	访	50	75	1651
011218	01:16:04	1	1	4.0.10.0	1	7	NineLeftF	NineLeftF_xuexi	0	0	0	1000	0	0	0	0	0	0	1	+	50pct	50pct	0	5	休	50	25	1649	3	羊	50	75	1649
011218	01:16:04	1	1	4.0.10.0	1	8	NineLeftF	NineLeftF_xuexi	0	0	0	1000	0	0	0	0	0	0	1	+	50pct	50pct	0	1	朱	50	25	1649	4	并	50	75	1649
011218	01:16:04	1	1	4.0.10.0	1	9	NineLeftF	NineLeftF_xuexi	0	0	0	1000	0	0	0	0	0	0	1	+	50pct	50pct	1	10	延	50	25	1649	9	寻	50	75	1649
011218	01:16:04	1	1	4.0.10.0	1	10	NineLeftF	NineLeftF_xuexi	0	0	0	1000	0	0	0	0	0	0	1	+	50pct	50pct	0	2	先	50	25	1649	5	污	50	75	1649
011218	01:16:04	1	1	4.0.10.0	1	11	NineLeftF	NineLeftF_xuexiceshi	0	0	0	0	0	0	36	0	2200	0	2	先	50	25	0	0	0	0	0	0	0	0	0	0	0
011218	01:16:04	1	1	4.0.10.0	1	12	NineLeftF	NineLeftF_xuexiceshi	0	0	0	0	0	0	36	0	2325	0	5	休	50	25	0	0	0	0	0	0	0	0	0	0	0
011218	01:16:04	1	1	4.0.10.0	1	13	NineLeftF	NineLeftF_buxueceshi	0	0	0	0	0	0	36	0	734	0	3	导	50pct	50pct	0	0	0	0	0	0	0	0	0	0	0
011218	01:16:04	1	1	4.0.10.0	1	14	NineLeftF	NineLeftF_buxueceshi	0	0	0	0	0	0	36	0	453	0	4	异	50pct	50pct	0	0	0	0	0	0	0	0	0	0	0
011218	01:16:04	1	1	4.0.10.0	1	15	NineLeftF	NineLeftF_xuexiceshi	0	0	0	0	0	0	36	0	496	0	1	朱	50	25	0	0	0	0	0	0	0	0	0	0	0
011218	01:16:04	1	1	4.0.10.0	1	16	NineLeftF	NineLeftF_xuexiceshi	0	0	0	0	0	0	36	0	360	0	4	乒	50	25	1	0	0	0	0	0	0	0	0	0	0
011218	01:16:04	1	1	4.0.10.0	1	17	NineLeftF	NineLeftF_buxueceshi	0	0	0	0	0	0	36	0	266	0	1	迅	50pct	50pct	0	0	0	0	0	0	0	0	0	0	0
011218	01:16:04	1	1	4.0.10.0	1	18	NineLeftF	NineLeftF_xuexiceshi	0	0	0	0	0	0	36	0	221	0	7	伏	50	25	1	0	0	0	0	0	0	0	0	0	0
011218	01:16:04	1	1	4.0.10.0	1	19	NineLeftF	NineLeftF_buxueceshi	0	0	0	0	0	0	36	0	188	0	5	孙	50pct	50pct	0	0	0	0	0	0	0	0	0	0	0
011218	01:16:04	1	1	4.0.10.0	1	20	NineLeftF	NineLeftF_xuexiceshi	0	0	0	0	0	0	36	0	182	0	6	伍	50	25	0	0	0	0	0	0	0	0	0	0	0
011218	01:16:04	1	1	4.0.10.0	1	21	NineLeftF	NineLeftF_xuexiceshi	0	0	0	0	0	0	36	0	192	0	3	丢	50	25	2	0	0	0	0	0	0	0	0	0	0
011218	01:16:04	1	1	4.0.10.0	1	22	NineLeftF	NineLeftF_buxueceshi	0	0	0	0	0	0	36	0	186	0	6	妈	50pct	50pct	0	0	0	0	0	0	0	0	0	0	0
011218	01:16:04	1	1	4.0.10.0	1	23	NineLeftF	NineLeftF_buxueceshi	0	0	0	0	0	0	36	0	174	0	9	约	50pct	50pct	0	0	0	0	0	0	0	0	0	0	0
011218	01:16:04	1	1	4.0.10.0	1	24	NineLeftF	NineLeftF_buxueceshi	0	0	0	0	0	0	36	0	175	0	10	纪	50pct	50pct	0	0	0	0	0	0	0	0	0	0	0
011218	01:16:04	1	1	4.0.10.0	1	25	NineLeftF	NineLeftF_xuexiceshi	0	0	0	0	0	0	36	0	197	0	9	伐	50	25	0	0	0	0	0	0	0	0	0	0	0
011218	01:16:04	1	1	4.0.10.0	1	26	NineLeftF	NineLeftF_xuexiceshi	0	0	0	0	0	0	36	0	182	0	8	优	50	25	1	0	0	0	0	0	0	0	0	0	0
011218	01:16:04	1	1	4.0.10.0	1	27	NineLeftF	NineLeftF_xuexiceshi	0	0	0	0	0	0	36	0	179	0	10	延	50	25	0	0	0	0	0	0	0	0	0	0	0
011218	01:16:04	1	1	4.0.10.0	1	28	NineLeftF	NineLeftF_buxueceshi	0	0	0	0	0	0	36	0	189	0	7	戏	50pct	50pct	0	0	0	0	0	0	0	0	0	0	0
011218	01:16:04	1	1	4.0.10.0	1	29	NineLeftF	NineLeftF_buxueceshi	0	0	0	0	0	0	36	0	170	0	8	羽	50pct	50pct	0	0	0	0	0	0	0	0	0	0	0
011218	01:16:04	1	1	4.0.10.0	1	30	NineLeftF	NineLeftF_buxueceshi	0	0	0	0	0	0	36	0	190	0	2	尽	50pct	50pct	0	0	0	0	0	0	0	0	0	0	0
011218	01:18:28	1	1	4.0.10.0	1	1	FiveRightJ	FiveRightJ_xuexi	0	0	0	600	0	0	0	0	0	0	1	+	50pct	50pct	0	4	团	50	25	1649	8	肉	50	75	1649
011218	01:18:28	1	1	4.0.10.0	1	2	FiveRightJ	FiveRightJ_xuexi	0	0	0	600	0	0	0	0	0	0	1	+	50pct	50pct	0	5	同	50	25	1649	3	岁	50	75	1649
011218	01:18:28	1	1	4.0.10.0	1	3	FiveRightJ	FiveRightJ_xuexi	0	0	0	600	0	0	0	0	0	0	1	+	50pct	50pct	0	9	吸	50	25	1649	2	帆	50	75	1649
011218	01:18:28	1	1	4.0.10.0	1	4	FiveRightJ	FiveRightJ_xuexi	0	0	0	600	0	0	0	0	0	0	1	+	50pct	50pct	0	3	曲	50	25	1649	7	则	50	75	1649
011218	01:18:28	1	1	4.0.10.0	1	5	FiveRightJ	FiveRightJ_xuexi	0	0	0	600	0	0	0	0	0	0	1	+	50pct	50pct	0	6	吊	50	25	1649	10	年	50	75	1649
011218	01:18:28	1	1	4.0.10.0	1	6	FiveRightJ	FiveRightJ_xuexi	0	0	0	600	0	0	0	0	0	0	1	+	50pct	50pct	0	7	吃	50	25	1649	9	网	50	75	1649
011218	01:18:28	1	1	4.0.10.0	1	7	FiveRightJ	FiveRightJ_xuexi	0	0	0	600	0	0	0	0	0	0	1	+	50pct	50pct	0	8	因	50	25	1649	5	岂	50	75	1649
011218	01:18:28	1	1	4.0.10.0	1	8	FiveRightJ	FiveRightJ_xuexi	0	0	0	600	0	0	0	0	0	0	1	+	50pct	50pct	0	10	吗	50	25	1649	1	屿	50	75	1649
011218	01:18:28	1	1	4.0.10.0	1	9	FiveRightJ	FiveRightJ_xuexi	0	0	0	600	0	0	0	0	0	0	1	+	50pct	50pct	0	2	虫	50	25	1649	6	刚	50	75	1649
011218	01:18:28	1	1	4.0.10.0	1	10	FiveRightJ	FiveRightJ_xuexi	0	0	0	600	0	0	0	0	0	0	1	+	50pct	50pct	0	1	吓	50	25	1649	4	回	50	75	1649
011218	01:18:28	1	1	4.0.10.0	1	11	FiveRightJ	FiveRightJ_buxueceshi	0	0	0	0	0	0	33	0	3222	0	10	闭	50pct	50pct	0	0	0	0	0	0	0	0	0	0	0
011218	01:18:28	1	1	4.0.10.0	1	12	FiveRightJ	FiveRightJ_xuexiceshi	0	0	0	0	0	0	33	0	1651	0	5	同	50pct	50pct	2	0	0	0	0	0	0	0	0	0	0
011218	01:18:28	1	1	4.0.10.0	1	13	FiveRightJ	FiveRightJ_xuexiceshi	0	0	0	0	0	0	33	0	374	0	9	吸	50pct	50pct	0	0	0	0	0	0	0	0	0	0	0
011218	01:18:28	1	1	4.0.10.0	1	14	FiveRightJ	FiveRightJ_buxueceshi	0	0	0	0	0	0	33	0	308	0	4	庆	50pct	50pct	0	0	0	0	0	0	0	0	0	0	0
011218	01:18:28	1	1	4.0.10.0	1	15	FiveRightJ	FiveRightJ_buxueceshi	0	0	0	0	0	0	33	0	240	0	6	刘	50pct	50pct	0	0	0	0	0	0	0	0	0	0	0
011218	01:18:28	1	1	4.0.10.0	1	16	FiveRightJ	FiveRightJ_buxueceshi	0	0	0	0	0	0	33	0	245	0	7	齐	50pct	50pct	0	0	0	0	0	0	0	0	0	0	0
011218	01:18:28	1	1	4.0.10.0	1	17	FiveRightJ	FiveRightJ_buxueceshi	0	0	0	0	0	0	33	0	214	0	5	亦	50pct	50pct	0	0	0	0	0	0	0	0	0	0	0
011218	01:18:28	1	1	4.0.10.0	1	18	FiveRightJ	FiveRightJ_xuexiceshi	0	0	0	0	0	0	33	0	202	0	1	吓	50pct	50pct	1	0	0	0	0	0	0	0	0	0	0
011218	01:18:28	1	1	4.0.10.0	1	19	FiveRightJ	FiveRightJ_buxueceshi	0	0	0	0	0	0	33	0	188	0	3	庄	50pct	50pct	0	0	0	0	0	0	0	0	0	0	0
011218	01:18:28	1	1	4.0.10.0	1	20	FiveRightJ	FiveRightJ_buxueceshi	0	0	0	0	0	0	33	0	193	0	1	冲	50pct	50pct	0	0	0	0	0	0	0	0	0	0	0
011218	01:18:28	1	1	4.0.10.0	1	21	FiveRightJ	FiveRightJ_xuexiceshi	0	0	0	0	0	0	33	0	193	0	2	虫	50pct	50pct	0	0	0	0	0	0	0	0	0	0	0
011218	01:18:28	1	1	4.0.10.0	1	22	FiveRightJ	FiveRightJ_xuexiceshi	0	0	0	0	0	0	33	0	190	0	7	吃	50pct	50pct	0	0	0	0	0	0	0	0	0	0	0
011218	01:18:28	1	1	4.0.10.0	1	23	FiveRightJ	FiveRightJ_xuexiceshi	0	0	0	0	0	0	33	0	169	0	8	因	50pct	50pct	0	0	0	0	0	0	0	0	0	0	0
011218	01:18:28	1	1	4.0.10.0	1	24	FiveRightJ	FiveRightJ_buxueceshi	0	0	0	0	0	0	33	0	162	0	8	交	50pct	50pct	2	0	0	0	0	0	0	0	0	0	0
011218	01:18:28	1	1	4.0.10.0	1	25	FiveRightJ	FiveRightJ_buxueceshi	0	0	0	0	0	0	33	0	194	0	9	妄	50pct	50pct	0	0	0	0	0	0	0	0	0	0	0
011218	01:18:28	1	1	4.0.10.0	1	26	FiveRightJ	FiveRightJ_xuexiceshi	0	0	0	0	0	0	33	0	202	0	3	曲	50pct	50pct	0	0	0	0	0	0	0	0	0	0	0
011218	01:18:28	1	1	4.0.10.0	1	27	FiveRightJ	FiveRightJ_xuexiceshi	0	0	0	0	0	0	33	0	190	0	10	吗	50pct	50pct	0	0	0	0	0	0	0	0	0	0	0
011218	01:18:28	1	1	4.0.10.0	1	28	FiveRightJ	FiveRightJ_buxueceshi	0	0	0	0	0	0	33	0	220	0	2	冰	50pct	50pct	0	0	0	0	0	0	0	0	0	0	0
011218	01:18:28	1	1	4.0.10.0	1	29	FiveRightJ	FiveRightJ_xuexiceshi	0	0	0	0	0	0	33	0	189	0	6	吊	50pct	50pct	0	0	0	0	0	0	0	0	0	0	0
011218	01:18:28	1	1	4.0.10.0	1	30	FiveRightJ	FiveRightJ_xuexiceshi	0	0	0	0	0	0	33	0	203	0	4	团	50pct	50pct	0	0	0	0	0	0	0	0	0	0	0
011218	01:25:09	1	1	4.0.10.0	1	1	NineRightJ	NineRightJ_xuexi	0	0	0	1000	0	0	0	0	0	0	1	+	50pct	50pct	0	5	仿	50	25	1649	3	行	50	75	1649
011218	01:25:09	1	1	4.0.10.0	1	2	NineRightJ	NineRightJ_xuexi	0	0	0	1000	0	0	0	0	0	0	1	+	50pct	50pct	0	6	伙	50	25	1649	1	似	50	75	1649
011218	01:25:09	1	1	4.0.10.0	1	3	NineRightJ	NineRightJ_xuexi	0	0	0	1000	0	0	0	0	0	0	1	+	50pct	50pct	0	8	自	50	25	1649	8	伞	50	75	1649
011218	01:25:09	1	1	4.0.10.0	1	4	NineRightJ	NineRightJ_xuexi	0	0	0	1000	0	0	0	0	0	0	1	+	50pct	50pct	1	3	华	50	25	1649	4	舟	50	75	1649
011218	01:25:09	1	1	4.0.10.0	1	5	NineRightJ	NineRightJ_xuexi	0	0	0	1000	0	0	0	0	0	0	1	+	50pct	50pct	0	7	伪	50	25	1649	9	创	50	75	1649
011218	01:25:09	1	1	4.0.10.0	1	6	NineRightJ	NineRightJ_xuexi	0	0	0	1000	0	0	0	0	0	0	1	+	50pct	50pct	0	4	仰	50	25	1649	6	众	50	75	1649
011218	01:25:09	1	1	4.0.10.0	1	7	NineRightJ	NineRightJ_xuexi	0	0	0	1000	0	0	0	0	0	0	1	+	50pct	50pct	0	2	价	50	25	1649	10	肌	50	75	1649
011218	01:25:09	1	1	4.0.10.0	1	8	NineRightJ	NineRightJ_xuexi	0	0	0	1000	0	0	0	0	0	0	1	+	50pct	50pct	0	9	血	50	25	1649	7	爷	50	75	1649
011218	01:25:09	1	1	4.0.10.0	1	9	NineRightJ	NineRightJ_xuexi	0	0	0	1000	0	0	0	0	0	0	1	+	50pct	50pct	0	1	伤	50	25	1649	2	后	50	75	1649
011218	01:25:09	1	1	4.0.10.0	1	10	NineRightJ	NineRightJ_xuexi	0	0	0	1000	0	0	0	0	0	0	1	+	50pct	50pct	0	10	向	50	25	1649	5	全	50	75	1649
011218	01:25:09	1	1	4.0.10.0	1	11	NineRightJ	NineRightJ_buxueceshi	0	0	0	0	0	0	33	0	1750	0	8	争	50pct	50pct	0	0	0	0	0	0	0	0	0	0	0
011218	01:25:09	1	1	4.0.10.0	1	12	NineRightJ	NineRightJ_xuexiceshi	0	0	0	0	0	0	33	0	1884	0	3	华	50pct	50pct	2	0	0	0	0	0	0	0	0	0	0
011218	01:25:09	1	1	4.0.10.0	1	13	NineRightJ	NineRightJ_xuexiceshi	0	0	0	0	0	0	36	1	1109	0	6	伙	50pct	50pct	0	0	0	0	0	0	0	0	0	0	0
011218	01:25:09	1	1	4.0.10.0	1	14	NineRightJ	NineRightJ_buxueceshi	0	0	0	0	0	0	33	0	408	0	6	名	50pct	50pct	0	0	0	0	0	0	0	0	0	0	0
011218	01:25:09	1	1	4.0.10.0	1	15	NineRightJ	NineRightJ_buxueceshi	0	0	0	0	0	0	36	1	415	0	4	旬	50pct	50pct	0	0	0	0	0	0	0	0	0	0	0
011218	01:25:09	1	1	4.0.10.0	1	16	NineRightJ	NineRightJ_buxueceshi	0	0	0	0	0	0	33	0	242	0	3	危	50pct	50pct	1	0	0	0	0	0	0	0	0	0	0
011218	01:25:09	1	1	4.0.10.0	1	17	NineRightJ	NineRightJ_buxueceshi	0	0	0	0	0	0	36	1	461	0	1	朵	50pct	50pct	0	0	0	0	0	0	0	0	0	0	0
011218	01:25:09	1	1	4.0.10.0	1	18	NineRightJ	NineRightJ_buxueceshi	0	0	0	0	0	0	33	0	312	0	2	杂	50pct	50pct	0	0	0	0	0	0	0	0	0	0	0
011218	01:25:09	1	1	4.0.10.0	1	19	NineRightJ	NineRightJ_xuexiceshi	0	0	0	0	0	0	36	1	247	0	8	自	50pct	50pct	0	0	0	0	0	0	0	0	0	0	0
011218	01:25:09	1	1	4.0.10.0	1	20	NineRightJ	NineRightJ_buxueceshi	0	0	0	0	0	0	33	0	204	0	5	各	50pct	50pct	0	0	0	0	0	0	0	0	0	0	0
011218	01:25:09	1	1	4.0.10.0	1	21	NineRightJ	NineRightJ_xuexiceshi	0	0	0	0	0	0	36	1	375	0	1	伤	50pct	50pct	1	0	0	0	0	0	0	0	0	0	0
011218	01:25:09	1	1	4.0.10.0	1	22	NineRightJ	NineRightJ_buxueceshi	0	0	0	0	0	0	33	0	262	0	9	色	50pct	50pct	0	0	0	0	0	0	0	0	0	0	0
011218	01:25:09	1	1	4.0.10.0	1	23	NineRightJ	NineRightJ_xuexiceshi	0	0	0	0	0	0	36	1	235	0	9	血	50pct	50pct	0	0	0	0	0	0	0	0	0	0	0
011218	01:25:09	1	1	4.0.10.0	1	24	NineRightJ	NineRightJ_xuexiceshi	0	0	0	0	0	0	33	0	231	0	5	仿	50pct	50pct	0	0	0	0	0	0	0	0	0	0	0
011218	01:25:09	1	1	4.0.10.0	1	25	NineRightJ	NineRightJ_xuexiceshi	0	0	0	0	0	0	36	1	219	0	4	仰	50pct	50pct	0	0	0	0	0	0	0	0	0	0	0
011218	01:25:09	1	1	4.0.10.0	1	26	NineRightJ	NineRightJ_buxueceshi	0	0	0	0	0	0	33	0	206	0	7	多	50pct	50pct	0	0	0	0	0	0	0	0	0	0	0
011218	01:25:09	1	1	4.0.10.0	1	27	NineRightJ	NineRightJ_buxueceshi	0	0	0	0	0	0	36	1	268	0	10	壮	50pct	50pct	0	0	0	0	0	0	0	0	0	0	0
011218	01:25:09	1	1	4.0.10.0	1	28	NineRightJ	NineRightJ_xuexiceshi	0	0	0	0	0	0	33	0	138	0	2	价	50pct	50pct	1	0	0	0	0	0	0	0	0	0	0
011218	01:25:09	1	1	4.0.10.0	1	29	NineRightJ	NineRightJ_xuexiceshi	0	0	0	0	0	0	36	1	290	0	7	伪	50pct	50pct	0	0	0	0	0	0	0	0	0	0	0
011218	01:25:09	1	1	4.0.10.0	1	30	NineRightJ	NineRightJ_xuexiceshi	0	0	0	0	0	0	33	0	158	0	10	向	50pct	50pct	0	0	0	0	0	0	0	0	0	0	0
011218	01:26:34	1	1	4.0.10.0	1	1	NineLeftF	NineLeftF_xuexi	0	0	0	1000	0	0	0	0	0	0	1	+	50pct	50pct	0	3	丢	50	25	1649	4	并	50	75	1649
011218	01:26:34	1	1	4.0.10.0	1	2	NineLeftF	NineLeftF_xuexi	0	0	0	1000	0	0	0	0	0	0	1	+	50pct	50pct	0	10	延	50	25	1649	6	守	50	75	1649
011218	01:26:34	1	1	4.0.10.0	1	3	NineLeftF	NineLeftF_xuexi	0	0	0	1000	0	0	0	0	0	0	1	+	50pct	50pct	0	2	先	50	25	1649	8	访	50	75	1649
011218	01:26:34	1	1	4.0.10.0	1	4	NineLeftF	NineLeftF_xuexi	0	0	0	1000	0	0	0	0	0	0	1	+	50pct	50pct	0	8	优	50	25	1649	2	闯	50	75	1649
011218	01:26:34	1	1	4.0.10.0	1	5	NineLeftF	NineLeftF_xuexi	0	0	0	1000	0	0	0	0	0	0	1	+	50pct	50pct	0	4	乒	50	25	1649	1	问	50	75	1649
011218	01:26:34	1	1	4.0.10.0	1	6	NineLeftF	NineLeftF_xuexi	0	0	0	1000	0	0	0	0	0	0	1	+	50pct	50pct	0	6	伍	50	25	1649	9	寻	50	75	1649
011218	01:26:34	1	1	4.0.10.0	1	7	NineLeftF	NineLeftF_xuexi	0	0	0	1000	0	0	0	0	0	0	1	+	50pct	50pct	0	5	休	50	25	1649	7	设	50	75	1649
011218	01:26:34	1	1	4.0.10.0	1	8	NineLeftF	NineLeftF_xuexi	0	0	0	1000	0	0	0	0	0	0	1	+	50pct	50pct	0	1	朱	50	25	1649	3	羊	50	75	1649
011218	01:26:34	1	1	4.0.10.0	1	9	NineLeftF	NineLeftF_xuexi	0	0	0	1000	0	0	0	0	0	0	1	+	50pct	50pct	0	9	伐	50	25	1649	5	污	50	75	1649
011218	01:26:34	1	1	4.0.10.0	1	10	NineLeftF	NineLeftF_xuexi	0	0	0	1000	0	0	0	0	0	0	1	+	50pct	50pct	0	7	伏	50	25	1649	10	那	50	75	1649
011218	01:26:34	1	1	4.0.10.0	1	11	NineLeftF	NineLeftF_xuexiceshi	0	0	0	0	0	0	36	0	40	0	10	延	50pct	50pct	0	0	0	0	0	0	0	0	0	0	0
011218	01:26:34	1	1	4.0.10.0	1	12	NineLeftF	NineLeftF_xuexiceshi	0	0	0	0	0	0	36	0	42	0	2	先	50pct	50pct	0	0	0	0	0	0	0	0	0	0	0
011218	01:26:34	1	1	4.0.10.0	1	13	NineLeftF	NineLeftF_buxueceshi	0	0	0	0	0	0	36	0	35	0	1	迅	50pct	50pct	0	0	0	0	0	0	0	0	0	0	0
011218	01:26:34	1	1	4.0.10.0	1	14	NineLeftF	NineLeftF_buxueceshi	0	0	0	0	0	0	33	1	37	0	3	导	50pct	50pct	0	0	0	0	0	0	0	0	0	0	0
011218	01:26:34	1	1	4.0.10.0	1	15	NineLeftF	NineLeftF_buxueceshi	0	0	0	0	0	0	33	1	34	0	10	纪	50pct	50pct	0	0	0	0	0	0	0	0	0	0	0
011218	01:26:34	1	1	4.0.10.0	1	16	NineLeftF	NineLeftF_buxueceshi	0	0	0	0	0	0	33	1	42	0	9	约	50pct	50pct	0	0	0	0	0	0	0	0	0	0	0
011218	01:26:34	1	1	4.0.10.0	1	17	NineLeftF	NineLeftF_buxueceshi	0	0	0	0	0	0	33	1	53	0	8	羽	50pct	50pct	0	0	0	0	0	0	0	0	0	0	0
011218	01:26:34	1	1	4.0.10.0	1	18	NineLeftF	NineLeftF_xuexiceshi	0	0	0	0	0	0	33	1	24	0	7	伏	50pct	50pct	0	0	0	0	0	0	0	0	0	0	0
011218	01:26:34	1	1	4.0.10.0	1	19	NineLeftF	NineLeftF_xuexiceshi	0	0	0	0	0	0	33	1	18	0	9	伐	50pct	50pct	0	0	0	0	0	0	0	0	0	0	0
011218	01:26:34	1	1	4.0.10.0	1	20	NineLeftF	NineLeftF_buxueceshi	0	0	0	0	0	0	33	1	44	0	7	戏	50pct	50pct	0	0	0	0	0	0	0	0	0	0	0
011218	01:26:34	1	1	4.0.10.0	1	21	NineLeftF	NineLeftF_xuexiceshi	0	0	0	0	0	0	33	1	50	0	4	乒	50pct	50pct	0	0	0	0	0	0	0	0	0	0	0
011218	01:26:34	1	1	4.0.10.0	1	22	NineLeftF	NineLeftF_buxueceshi	0	0	0	0	0	0	36	0	58	0	6	妈	50pct	50pct	0	0	0	0	0	0	0	0	0	0	0
011218	01:26:34	1	1	4.0.10.0	1	23	NineLeftF	NineLeftF_buxueceshi	0	0	0	0	0	0	33	1	39	0	4	异	50pct	50pct	0	0	0	0	0	0	0	0	0	0	0
011218	01:26:34	1	1	4.0.10.0	1	24	NineLeftF	NineLeftF_buxueceshi	0	0	0	0	0	0	33	1	38	0	2	尽	50pct	50pct	1	0	0	0	0	0	0	0	0	0	0
011218	01:26:34	1	1	4.0.10.0	1	25	NineLeftF	NineLeftF_xuexiceshi	0	0	0	0	0	0	36	0	44	0	5	休	50pct	50pct	0	0	0	0	0	0	0	0	0	0	0
011218	01:26:34	1	1	4.0.10.0	1	26	NineLeftF	NineLeftF_xuexiceshi	0	0	0	0	0	0	36	0	48	0	8	优	50pct	50pct	0	0	0	0	0	0	0	0	0	0	0
011218	01:26:34	1	1	4.0.10.0	1	27	NineLeftF	NineLeftF_xuexiceshi	0	0	0	0	0	0	36	0	41	0	1	朱	50pct	50pct	1	0	0	0	0	0	0	0	0	0	0
011218	01:26:34	1	1	4.0.10.0	1	28	NineLeftF	NineLeftF_buxueceshi	0	0	0	0	0	0	33	1	26	0	5	孙	50pct	50pct	0	0	0	0	0	0	0	0	0	0	0
011218	01:26:34	1	1	4.0.10.0	1	29	NineLeftF	NineLeftF_xuexiceshi	0	0	0	0	0	0	33	1	50	0	6	伍	50pct	50pct	0	0	0	0	0	0	0	0	0	0	0
011218	01:26:34	1	1	4.0.10.0	1	30	NineLeftF	NineLeftF_xuexiceshi	0	0	0	0	0	0	33	1	43	0	3	丢	50pct	50pct	0	0	0	0	0	0	0	0	0	0	0
011218	01:26:34	1	1	4.0.10.0	2	1	FiveRightJ	FiveRightJ_xuexi	0	0	0	600	0	0	0	0	0	0	1	+	50pct	50pct	0	3	曲	50	25	1649	5	岂	50	75	1649
011218	01:26:34	1	1	4.0.10.0	2	2	FiveRightJ	FiveRightJ_xuexi	0	0	0	600	0	0	0	0	0	0	1	+	50pct	50pct	0	2	虫	50	25	1649	9	网	50	75	1649
011218	01:26:34	1	1	4.0.10.0	2	3	FiveRightJ	FiveRightJ_xuexi	0	0	0	600	0	0	Ctrl+'Q'	1	0	0	1	+	50pct	50pct	0	9	吸	50	25	1649	2	帆	50	75	1649
011218	01:52:12	1	1	4.0.10.0	1	2	FiveLeftF	FiveLeftF_xuexi	0	0	0	600	0	0	0	0	0	0	1	+	50pct	50pct	0	1	式	50	25	1649	6	灰	50	75	1649
011218	01:52:12	1	1	4.0.10.0	1	3	FiveLeftF	FiveLeftF_xuexi	0	0	0	600	0	0	0	0	0	0	1	+	50pct	50pct	0	3	动	50	25	1649	9	划	50	75	1649
011218	01:52:12	1	1	4.0.10.0	1	4	FiveLeftF	FiveLeftF_xuexi	0	0	0	600	0	0	0	0	0	0	1	+	50pct	50pct	0	4	扛	50	25	1649	1	共	50	75	1649
011218	01:52:12	1	1	4.0.10.0	1	5	FiveLeftF	FiveLeftF_xuexi	0	0	0	600	0	0	0	0	0	0	1	+	50pct	50pct	0	9	场	50	25	1649	5	协	50	75	1649
011218	01:52:12	1	1	4.0.10.0	1	6	FiveLeftF	FiveLeftF_xuexi	0	0	0	600	0	0	0	0	0	0	1	+	50pct	50pct	0	10	耳	50	25	1651	8	邪	50	75	1651
011218	01:52:12	1	1	4.0.10.0	1	7	FiveLeftF	FiveLeftF_xuexi	0	0	0	600	0	0	0	0	0	0	1	+	50pct	50pct	0	8	扫	50	25	1649	3	臣	50	75	1649
011218	01:52:12	1	1	4.0.10.0	1	8	FiveLeftF	FiveLeftF_xuexi	0	0	0	600	0	0	0	0	0	0	1	+	50pct	50pct	0	2	刑	50	25	1649	2	过	50	75	1649
011218	01:52:12	1	1	4.0.10.0	1	9	FiveLeftF	FiveLeftF_xuexi	0	0	0	600	0	0	0	0	0	0	1	+	50pct	50pct	0	6	吉	50	25	1650	10	迈	50	75	1650
011218	01:52:12	1	1	4.0.10.0	1	10	FiveLeftF	FiveLeftF_xuexi	0	0	0	600	0	0	0	0	0	0	1	+	50pct	50pct	0	5	寺	50	25	1649	7	达	50	75	1649
011218	01:52:12	1	1	4.0.10.0	1	11	FiveLeftF	FiveLeftF_xuexi	0	0	0	600	0	0	0	0	0	0	1	+	50pct	50pct	0	7	扩	50	25	1649	4	再	50	75	1649
011218	01:52:12	1	1	4.0.10.0	1	12	FiveLeftF	FiveLeftF_xuexiceshi	0	0	0	0	0	0	36	0	1190	0	1	式	50pct	50pct	0	0	0	0	0	0	0	0	0	0	0
011218	01:52:12	1	1	4.0.10.0	1	13	FiveLeftF	FiveLeftF_buxueceshi	0	0	0	0	0	0	33	1	327	0	8	当	50pct	50pct	0	0	0	0	0	0	0	0	0	0	0
011218	01:52:12	1	1	4.0.10.0	1	14	FiveLeftF	FiveLeftF_xuexiceshi	0	0	0	0	0	0	36	0	176	0	6	吉	50pct	50pct	1	0	0	0	0	0	0	0	0	0	0
011218	01:52:12	1	1	4.0.10.0	1	15	FiveLeftF	FiveLeftF_buxueceshi	0	0	0	0	0	0	33	1	96	0	9	早	50pct	50pct	2	0	0	0	0	0	0	0	0	0	0
011218	01:52:12	1	1	4.0.10.0	1	16	FiveLeftF	FiveLeftF_buxueceshi	0	0	0	0	0	0	36	0	183	0	5	师	50pct	50pct	0	0	0	0	0	0	0	0	0	0	0
011218	01:52:12	1	1	4.0.10.0	1	17	FiveLeftF	FiveLeftF_xuexiceshi	0	0	0	0	0	0	33	1	76	0	5	寺	50pct	50pct	0	0	0	0	0	0	0	0	0	0	0
011218	01:52:12	1	1	4.0.10.0	1	18	FiveLeftF	FiveLeftF_xuexiceshi	0	0	0	0	0	0	36	0	145	0	3	动	50pct	50pct	0	0	0	0	0	0	0	0	0	0	0
011218	01:52:12	1	1	4.0.10.0	1	19	FiveLeftF	FiveLeftF_xuexiceshi	0	0	0	0	0	0	33	1	69	0	10	耳	50pct	50pct	0	0	0	0	0	0	0	0	0	0	0
011218	01:52:12	1	1	4.0.10.0	1	20	FiveLeftF	FiveLeftF_xuexiceshi	0	0	0	0	0	0	36	0	159	0	2	刑	50pct	50pct	0	0	0	0	0	0	0	0	0	0	0
011218	01:52:12	1	1	4.0.10.0	1	21	FiveLeftF	FiveLeftF_buxueceshi	0	0	0	0	0	0	33	1	81	0	2	至	50pct	50pct	1	0	0	0	0	0	0	0	0	0	0
011218	01:52:12	1	1	4.0.10.0	1	22	FiveLeftF	FiveLeftF_buxueceshi	0	0	0	0	0	0	36	0	187	0	7	尖	50pct	50pct	0	0	0	0	0	0	0	0	0	0	0
011218	01:52:12	1	1	4.0.10.0	1	23	FiveLeftF	FiveLeftF_buxueceshi	0	0	0	0	0	0	36	0	226	0	4	贞	50pct	50pct	0	0	0	0	0	0	0	0	0	0	0
011218	01:52:12	1	1	4.0.10.0	1	24	FiveLeftF	FiveLeftF_buxueceshi	0	0	0	0	0	0	33	1	28	0	10	吐	50pct	50pct	0	0	0	0	0	0	0	0	0	0	0
011218	01:52:12	1	1	4.0.10.0	1	25	FiveLeftF	FiveLeftF_xuexiceshi	0	0	0	0	0	0	36	0	245	0	9	场	50pct	50pct	0	0	0	0	0	0	0	0	0	0	0
011218	01:52:12	1	1	4.0.10.0	1	26	FiveLeftF	FiveLeftF_buxueceshi	0	0	0	0	0	0	33	1	81	0	1	毕	50pct	50pct	0	0	0	0	0	0	0	0	0	0	0
011218	01:52:12	1	1	4.0.10.0	1	27	FiveLeftF	FiveLeftF_xuexiceshi	0	0	0	0	0	0	36	0	180	0	7	扩	50pct	50pct	1	0	0	0	0	0	0	0	0	0	0
011218	01:52:12	1	1	4.0.10.0	1	28	FiveLeftF	FiveLeftF_buxueceshi	0	0	0	0	0	0	33	1	84	0	3	此	50pct	50pct	0	0	0	0	0	0	0	0	0	0	0
011218	01:52:12	1	1	4.0.10.0	1	29	FiveLeftF	FiveLeftF_xuexiceshi	0	0	0	0	0	0	36	0	148	0	8	扫	50pct	50pct	0	0	0	0	0	0	0	0	0	0	0
011218	01:52:12	1	1	4.0.10.0	1	30	FiveLeftF	FiveLeftF_buxueceshi	0	0	0	0	0	0	33	1	116	0	6	尘	50pct	50pct	1	0	0	0	0	0	0	0	0	0	0
011218	01:52:12	1	1	4.0.10.0	1	31	FiveLeftF	FiveLeftF_xuexiceshi	0	0	0	0	0	0	36	0	105	0	4	扛	50pct	50pct	0	0	0	0	0	0	0	0	0	0	0
011218	01:52:12	1	1	4.0.10.0	2	2	FiveRightJ	FiveRightJ_xuexi	0	0	0	600	0	0	0	0	0	0	1	+	50pct	50pct	0	3	曲	50	25	1649	9	网	50	75	1649
011218	01:52:12	1	1	4.0.10.0	2	3	FiveRightJ	FiveRightJ_xuexi	0	0	0	600	0	0	0	0	0	0	1	+	50pct	50pct	0	9	吸	50	25	1649	10	年	50	75	1649
011218	01:52:12	1	1	4.0.10.0	2	4	FiveRightJ	FiveRightJ_xuexi	0	0	0	600	0	0	0	0	0	0	1	+	50pct	50pct	0	1	吓	50	25	1649	5	岂	50	75	1649
011218	01:52:12	1	1	4.0.10.0	2	5	FiveRightJ	FiveRightJ_xuexi	0	0	0	600	0	0	0	0	0	0	1	+	50pct	50pct	0	5	同	50	25	1651	2	帆	50	75	1651
011218	01:52:12	1	1	4.0.10.0	2	6	FiveRightJ	FiveRightJ_xuexi	0	0	0	600	0	0	0	0	0	0	1	+	50pct	50pct	0	7	吃	50	25	1649	3	岁	50	75	1649
011218	01:52:12	1	1	4.0.10.0	2	7	FiveRightJ	FiveRightJ_xuexi	0	0	0	600	0	0	0	0	0	0	1	+	50pct	50pct	0	6	吊	50	25	1649	8	肉	50	75	1649
011218	01:52:12	1	1	4.0.10.0	2	8	FiveRightJ	FiveRightJ_xuexi	0	0	0	600	0	0	0	0	0	0	1	+	50pct	50pct	0	8	因	50	25	1650	4	回	50	75	1650
011218	01:52:12	1	1	4.0.10.0	2	9	FiveRightJ	FiveRightJ_xuexi	0	0	0	600	0	0	0	0	0	0	1	+	50pct	50pct	0	2	虫	50	25	1649	1	屿	50	75	1649
011218	01:52:12	1	1	4.0.10.0	2	10	FiveRightJ	FiveRightJ_xuexi	0	0	0	600	0	0	0	0	0	0	1	+	50pct	50pct	0	10	吗	50	25	1649	7	则	50	75	1649
011218	01:52:12	1	1	4.0.10.0	2	11	FiveRightJ	FiveRightJ_xuexi	0	0	0	600	0	0	0	0	0	0	1	+	50pct	50pct	0	4	团	50	25	1649	6	刚	50	75	1649
011218	01:52:12	1	1	4.0.10.0	2	12	FiveRightJ	FiveRightJ_xuexiceshi	0	0	0	0	0	0	36	1	2723	0	6	吊	50pct	50pct	0	0	0	0	0	0	0	0	0	0	0
011218	01:52:12	1	1	4.0.10.0	2	13	FiveRightJ	FiveRightJ_xuexiceshi	0	0	0	0	0	0	33	0	171	0	1	吓	50pct	50pct	0	0	0	0	0	0	0	0	0	0	0
011218	01:52:12	1	1	4.0.10.0	2	14	FiveRightJ	FiveRightJ_buxueceshi	0	0	0	0	0	0	36	1	88	0	5	亦	50pct	50pct	0	0	0	0	0	0	0	0	0	0	0
011218	01:52:12	1	1	4.0.10.0	2	15	FiveRightJ	FiveRightJ_buxueceshi	0	0	0	0	0	0	33	0	103	0	2	冰	50pct	50pct	0	0	0	0	0	0	0	0	0	0	0
011218	01:52:12	1	1	4.0.10.0	2	16	FiveRightJ	FiveRightJ_buxueceshi	0	0	0	0	0	0	36	1	80	0	8	交	50pct	50pct	0	0	0	0	0	0	0	0	0	0	0
011218	01:52:12	1	1	4.0.10.0	2	17	FiveRightJ	FiveRightJ_buxueceshi	0	0	0	0	0	0	33	0	90	0	10	闭	50pct	50pct	0	0	0	0	0	0	0	0	0	0	0
011218	01:52:12	1	1	4.0.10.0	2	18	FiveRightJ	FiveRightJ_buxueceshi	0	0	0	0	0	0	36	1	99	0	4	庆	50pct	50pct	0	0	0	0	0	0	0	0	0	0	0
011218	01:52:12	1	1	4.0.10.0	2	19	FiveRightJ	FiveRightJ_buxueceshi	0	0	0	0	0	0	33	0	78	0	3	庄	50pct	50pct	2	0	0	0	0	0	0	0	0	0	0
011218	01:52:12	1	1	4.0.10.0	2	20	FiveRightJ	FiveRightJ_buxueceshi	0	0	0	0	0	0	36	1	120	0	9	妄	50pct	50pct	0	0	0	0	0	0	0	0	0	0	0
011218	01:52:12	1	1	4.0.10.0	2	21	FiveRightJ	FiveRightJ_xuexiceshi	0	0	0	0	0	0	36	1	179	0	10	吗	50pct	50pct	0	0	0	0	0	0	0	0	0	0	0
011218	01:52:12	1	1	4.0.10.0	2	22	FiveRightJ	FiveRightJ_xuexiceshi	0	0	0	0	0	0	33	0	2	0	2	虫	50pct	50pct	0	0	0	0	0	0	0	0	0	0	0
011218	01:52:12	1	1	4.0.10.0	2	23	FiveRightJ	FiveRightJ_buxueceshi	0	0	0	0	0	0	36	1	121	0	6	刘	50pct	50pct	0	0	0	0	0	0	0	0	0	0	0
011218	01:52:12	1	1	4.0.10.0	2	24	FiveRightJ	FiveRightJ_buxueceshi	0	0	0	0	0	0	33	0	7	0	7	齐	50pct	50pct	0	0	0	0	0	0	0	0	0	0	0
011218	01:52:12	1	1	4.0.10.0	2	25	FiveRightJ	FiveRightJ_xuexiceshi	0	0	0	0	0	0	36	1	146	0	9	吸	50pct	50pct	0	0	0	0	0	0	0	0	0	0	0
011218	01:52:12	1	1	4.0.10.0	2	26	FiveRightJ	FiveRightJ_xuexiceshi	0	0	0	0	0	0	33	0	15	0	3	曲	50pct	50pct	0	0	0	0	0	0	0	0	0	0	0
011218	01:52:12	1	1	4.0.10.0	2	27	FiveRightJ	FiveRightJ_xuexiceshi	0	0	0	0	0	0	36	1	143	0	5	同	50pct	50pct	0	0	0	0	0	0	0	0	0	0	0
011218	01:52:12	1	1	4.0.10.0	2	28	FiveRightJ	FiveRightJ_xuexiceshi	0	0	0	0	0	0	33	0	34	0	8	因	50pct	50pct	0	0	0	0	0	0	0	0	0	0	0
011218	01:52:12	1	1	4.0.10.0	2	29	FiveRightJ	FiveRightJ_xuexiceshi	0	0	0	0	0	0	36	1	124	0	7	吃	50pct	50pct	1	0	0	0	0	0	0	0	0	0	0
011218	01:52:12	1	1	4.0.10.0	2	30	FiveRightJ	FiveRightJ_xuexiceshi	0	0	0	0	0	0	33	0	38	0	4	团	50pct	50pct	0	0	0	0	0	0	0	0	0	0	0
011218	01:52:12	1	1	4.0.10.0	2	31	FiveRightJ	FiveRightJ_buxueceshi	0	0	0	0	0	0	36	1	127	0	1	冲	50pct	50pct	1	0	0	0	0	0	0	0	0	0	0
011218	01:52:12	1	1	4.0.10.0	3	2	NineRightJ	NineRightJ_xuexi	0	0	0	1000	0	0	0	0	0	0	1	+	50pct	50pct	0	6	伙	50	25	1649	2	后	50	75	1649
011218	01:52:12	1	1	4.0.10.0	3	3	NineRightJ	NineRightJ_xuexi	0	0	0	1000	0	0	0	0	0	0	1	+	50pct	50pct	0	5	仿	50	25	1649	5	全	50	75	1649
011218	01:52:12	1	1	4.0.10.0	3	4	NineRightJ	NineRightJ_xuexi	0	0	0	1000	0	0	Ctrl+'Q'	1	0	0	1	+	50pct	50pct	0	10	向	50	25	1649	9	创	50	75	1649
011218	01:56:25	1	1	4.0.10.0	1	2	NineLeftF	NineLeftF_xuexi	0	0	0	1000	0	0	0	0	0	0	1	+	50pct	50pct	0	7	伏	50	25	1649	4	并	50	75	1649
011218	01:56:25	1	1	4.0.10.0	1	3	NineLeftF	NineLeftF_xuexi	0	0	0	1000	0	0	0	0	0	0	1	+	50pct	50pct	0	9	伐	50	25	1649	3	羊	50	75	1649
011218	01:56:25	1	1	4.0.10.0	1	4	NineLeftF	NineLeftF_xuexi	0	0	0	1000	0	0	0	0	0	0	1	+	50pct	50pct	0	3	丢	50	25	1649	9	寻	50	75	1649
011218	01:56:25	1	1	4.0.10.0	1	5	NineLeftF	NineLeftF_xuexi	0	0	0	1000	0	0	0	0	0	0	1	+	50pct	50pct	0	4	乒	50	25	1649	2	闯	50	75	1649
011218	01:56:25	1	1	4.0.10.0	1	6	NineLeftF	NineLeftF_xuexi	0	0	0	1000	0	0	0	0	0	0	1	+	50pct	50pct	0	2	先	50	25	1649	1	问	50	75	1649
011218	01:56:25	1	1	4.0.10.0	1	7	NineLeftF	NineLeftF_xuexi	0	0	0	1000	0	0	0	0	0	0	1	+	50pct	50pct	0	1	朱	50	25	1649	5	污	50	75	1649
011218	01:56:25	1	1	4.0.10.0	1	8	NineLeftF	NineLeftF_xuexi	0	0	0	1000	0	0	0	0	0	0	1	+	50pct	50pct	0	5	休	50	25	1649	7	设	50	75	1649
011218	01:56:25	1	1	4.0.10.0	1	9	NineLeftF	NineLeftF_xuexi	0	0	0	1000	0	0	0	0	0	0	1	+	50pct	50pct	0	8	优	50	25	1649	6	守	50	75	1649
011218	01:56:25	1	1	4.0.10.0	1	10	NineLeftF	NineLeftF_xuexi	0	0	0	1000	0	0	0	0	0	0	1	+	50pct	50pct	0	10	延	50	25	1649	8	访	50	75	1649
011218	01:56:25	1	1	4.0.10.0	1	11	NineLeftF	NineLeftF_xuexi	0	0	0	1000	0	0	0	0	0	0	1	+	50pct	50pct	0	6	伍	50	25	1649	10	那	50	75	1649
011218	01:56:25	1	1	4.0.10.0	1	12	NineLeftF	NineLeftF_xuexiceshi	0	0	0	0	0	0	33	1	56	0	4	乒	50pct	50pct	0	0	0	0	0	0	0	0	0	0	0
011218	01:56:25	1	1	4.0.10.0	1	13	NineLeftF	NineLeftF_buxueceshi	0	0	0	0	0	0	33	1	45	0	9	约	50pct	50pct	0	0	0	0	0	0	0	0	0	0	0
011218	01:56:25	1	1	4.0.10.0	1	14	NineLeftF	NineLeftF_xuexiceshi	0	0	0	0	0	0	33	1	19	0	9	伐	50pct	50pct	0	0	0	0	0	0	0	0	0	0	0
011218	01:56:25	1	1	4.0.10.0	1	15	NineLeftF	NineLeftF_xuexiceshi	0	0	0	0	0	0	36	0	36	0	10	延	50pct	50pct	0	0	0	0	0	0	0	0	0	0	0
011218	01:56:25	1	1	4.0.10.0	1	16	NineLeftF	NineLeftF_xuexiceshi	0	0	0	0	0	0	33	1	43	0	1	朱	50pct	50pct	0	0	0	0	0	0	0	0	0	0	0
011218	01:56:25	1	1	4.0.10.0	1	17	NineLeftF	NineLeftF_buxueceshi	0	0	0	0	0	0	33	1	36	0	8	羽	50pct	50pct	0	0	0	0	0	0	0	0	0	0	0
011218	01:56:25	1	1	4.0.10.0	1	18	NineLeftF	NineLeftF_buxueceshi	0	0	0	0	0	0	36	0	49	0	4	异	50pct	50pct	0	0	0	0	0	0	0	0	0	0	0
011218	01:56:25	1	1	4.0.10.0	1	19	NineLeftF	NineLeftF_xuexiceshi	0	0	0	0	0	0	36	0	30	0	2	先	50pct	50pct	0	0	0	0	0	0	0	0	0	0	0
011218	01:56:25	1	1	4.0.10.0	1	20	NineLeftF	NineLeftF_buxueceshi	0	0	0	0	0	0	36	0	45	0	3	导	50pct	50pct	0	0	0	0	0	0	0	0	0	0	0
011218	01:56:25	1	1	4.0.10.0	1	21	NineLeftF	NineLeftF_buxueceshi	0	0	0	0	0	0	33	1	57	0	5	孙	50pct	50pct	1	0	0	0	0	0	0	0	0	0	0
011218	01:56:25	1	1	4.0.10.0	1	22	NineLeftF	NineLeftF_buxueceshi	0	0	0	0	0	0	36	0	42	0	6	妈	50pct	50pct	1	0	0	0	0	0	0	0	0	0	0
011218	01:56:25	1	1	4.0.10.0	1	23	NineLeftF	NineLeftF_xuexiceshi	0	0	0	0	0	0	33	1	22	0	3	丢	50pct	50pct	0	0	0	0	0	0	0	0	0	0	0
011218	01:56:25	1	1	4.0.10.0	1	24	NineLeftF	NineLeftF_buxueceshi	0	0	0	0	0	0	36	0	53	0	7	戏	50pct	50pct	0	0	0	0	0	0	0	0	0	0	0
011218	01:56:25	1	1	4.0.10.0	1	25	NineLeftF	NineLeftF_xuexiceshi	0	0	0	0	0	0	33	1	38	0	7	伏	50pct	50pct	1	0	0	0	0	0	0	0	0	0	0
011218	01:56:25	1	1	4.0.10.0	1	26	NineLeftF	NineLeftF_buxueceshi	0	0	0	0	0	0	36	0	50	0	10	纪	50pct	50pct	0	0	0	0	0	0	0	0	0	0	0
011218	01:56:25	1	1	4.0.10.0	1	27	NineLeftF	NineLeftF_buxueceshi	0	0	0	0	0	0	33	1	48	0	2	尽	50pct	50pct	0	0	0	0	0	0	0	0	0	0	0
011218	01:56:25	1	1	4.0.10.0	1	28	NineLeftF	NineLeftF_xuexiceshi	0	0	0	0	0	0	33	1	40	0	6	伍	50pct	50pct	1	0	0	0	0	0	0	0	0	0	0
011218	01:56:25	1	1	4.0.10.0	1	29	NineLeftF	NineLeftF_buxueceshi	0	0	0	0	0	0	33	1	34	0	1	迅	50pct	50pct	0	0	0	0	0	0	0	0	0	0	0
011218	01:56:25	1	1	4.0.10.0	1	30	NineLeftF	NineLeftF_xuexiceshi	0	0	0	0	0	0	33	1	23	0	8	优	50pct	50pct	0	0	0	0	0	0	0	0	0	0	0
011218	01:56:25	1	1	4.0.10.0	1	31	NineLeftF	NineLeftF_xuexiceshi	0	0	0	0	0	0	33	1	51	0	5	休	50pct	50pct	0	0	0	0	0	0	0	0	0	0	0
011218	01:56:25	1	1	4.0.10.0	2	2	NineRightJ	NineRightJ_xuexi	0	0	0	1000	0	0	0	0	0	0	1	+	50pct	50pct	0	7	伪	50	25	1649	9	创	50	75	1649
011218	01:56:25	1	1	4.0.10.0	2	3	NineRightJ	NineRightJ_xuexi	0	0	0	1000	0	0	0	0	0	0	1	+	50pct	50pct	0	8	自	50	25	1649	6	众	50	75	1649
011218	01:56:25	1	1	4.0.10.0	2	4	NineRightJ	NineRightJ_xuexi	0	0	0	1000	0	0	0	0	0	0	1	+	50pct	50pct	0	9	血	50	25	1649	3	行	50	75	1649
011218	01:56:25	1	1	4.0.10.0	2	5	NineRightJ	NineRightJ_xuexi	0	0	0	1000	0	0	0	0	0	0	1	+	50pct	50pct	0	10	向	50	25	1649	7	爷	50	75	1649
011218	01:56:25	1	1	4.0.10.0	2	6	NineRightJ	NineRightJ_xuexi	0	0	0	1000	0	0	0	0	0	0	1	+	50pct	50pct	0	2	价	50	25	1649	8	伞	50	75	1649
011218	01:56:25	1	1	4.0.10.0	2	7	NineRightJ	NineRightJ_xuexi	0	0	0	1000	0	0	0	0	0	0	1	+	50pct	50pct	0	6	伙	50	25	1649	1	似	50	75	1649
011218	01:56:25	1	1	4.0.10.0	2	8	NineRightJ	NineRightJ_xuexi	0	0	0	1000	0	0	0	0	0	0	1	+	50pct	50pct	0	4	仰	50	25	1649	2	后	50	75	1649
011218	01:56:25	1	1	4.0.10.0	2	9	NineRightJ	NineRightJ_xuexi	0	0	0	1000	0	0	0	0	0	0	1	+	50pct	50pct	0	1	伤	50	25	1649	5	全	50	75	1649
011218	01:56:25	1	1	4.0.10.0	2	10	NineRightJ	NineRightJ_xuexi	0	0	0	1000	0	0	0	0	0	0	1	+	50pct	50pct	0	5	仿	50	25	1649	4	舟	50	75	1649
011218	01:56:25	1	1	4.0.10.0	2	11	NineRightJ	NineRightJ_xuexi	0	0	0	1000	0	0	0	0	0	0	1	+	50pct	50pct	0	3	华	50	25	1649	10	肌	50	75	1649
011218	01:56:25	1	1	4.0.10.0	2	12	NineRightJ	NineRightJ_xuexiceshi	0	0	0	0	0	0	36	1	47	0	7	伪	50pct	50pct	1	0	0	0	0	0	0	0	0	0	0
011218	01:56:25	1	1	4.0.10.0	2	13	NineRightJ	NineRightJ_xuexiceshi	0	0	0	0	0	0	36	1	48	0	1	伤	50pct	50pct	0	0	0	0	0	0	0	0	0	0	0
011218	01:56:25	1	1	4.0.10.0	2	14	NineRightJ	NineRightJ_buxueceshi	0	0	0	0	0	0	36	1	53	0	3	危	50pct	50pct	1	0	0	0	0	0	0	0	0	0	0
011218	01:56:25	1	1	4.0.10.0	2	15	NineRightJ	NineRightJ_xuexiceshi	0	0	0	0	0	0	36	1	40	0	2	价	50pct	50pct	0	0	0	0	0	0	0	0	0	0	0
011218	01:56:25	1	1	4.0.10.0	2	16	NineRightJ	NineRightJ_xuexiceshi	0	0	0	0	0	0	36	1	38	0	10	向	50pct	50pct	0	0	0	0	0	0	0	0	0	0	0
011218	01:56:25	1	1	4.0.10.0	2	17	NineRightJ	NineRightJ_buxueceshi	0	0	0	0	0	0	36	1	33	0	5	各	50pct	50pct	0	0	0	0	0	0	0	0	0	0	0
011218	01:56:25	1	1	4.0.10.0	2	18	NineRightJ	NineRightJ_buxueceshi	0	0	0	0	0	0	36	1	29	0	2	杂	50pct	50pct	0	0	0	0	0	0	0	0	0	0	0
011218	01:56:25	1	1	4.0.10.0	2	19	NineRightJ	NineRightJ_xuexiceshi	0	0	0	0	0	0	36	1	13	0	4	仰	50pct	50pct	0	0	0	0	0	0	0	0	0	0	0
011218	01:56:25	1	1	4.0.10.0	2	20	NineRightJ	NineRightJ_xuexiceshi	0	0	0	0	0	0	36	1	34	0	5	仿	50pct	50pct	0	0	0	0	0	0	0	0	0	0	0
011218	01:56:25	1	1	4.0.10.0	2	21	NineRightJ	NineRightJ_buxueceshi	0	0	0	0	0	0	36	1	28	0	9	色	50pct	50pct	0	0	0	0	0	0	0	0	0	0	0
011218	01:56:25	1	1	4.0.10.0	2	22	NineRightJ	NineRightJ_xuexiceshi	0	0	0	0	0	0	36	1	34	0	3	华	50pct	50pct	0	0	0	0	0	0	0	0	0	0	0
011218	01:56:25	1	1	4.0.10.0	2	23	NineRightJ	NineRightJ_buxueceshi	0	0	0	0	0	0	33	0	46	0	4	旬	50pct	50pct	0	0	0	0	0	0	0	0	0	0	0
011218	01:56:25	1	1	4.0.10.0	2	24	NineRightJ	NineRightJ_buxueceshi	0	0	0	0	0	0	36	1	27	0	8	争	50pct	50pct	0	0	0	0	0	0	0	0	0	0	0
011218	01:56:25	1	1	4.0.10.0	2	25	NineRightJ	NineRightJ_buxueceshi	0	0	0	0	0	0	36	1	38	0	6	名	50pct	50pct	0	0	0	0	0	0	0	0	0	0	0
011218	01:56:25	1	1	4.0.10.0	2	26	NineRightJ	NineRightJ_xuexiceshi	0	0	0	0	0	0	36	1	54	0	9	血	50pct	50pct	0	0	0	0	0	0	0	0	0	0	0
011218	01:56:25	1	1	4.0.10.0	2	27	NineRightJ	NineRightJ_buxueceshi	0	0	0	0	0	0	36	1	54	0	1	朵	50pct	50pct	0	0	0	0	0	0	0	0	0	0	0
011218	01:56:25	1	1	4.0.10.0	2	28	NineRightJ	NineRightJ_buxueceshi	0	0	0	0	0	0	36	1	30	0	10	壮	50pct	50pct	0	0	0	0	0	0	0	0	0	0	0
011218	01:56:25	1	1	4.0.10.0	2	29	NineRightJ	NineRightJ_xuexiceshi	0	0	0	0	0	0	36	1	47	0	6	伙	50pct	50pct	0	0	0	0	0	0	0	0	0	0	0
011218	01:56:25	1	1	4.0.10.0	2	30	NineRightJ	NineRightJ_buxueceshi	0	0	0	0	0	0	33	0	41	0	7	多	50pct	50pct	1	0	0	0	0	0	0	0	0	0	0
011218	01:56:25	1	1	4.0.10.0	2	31	NineRightJ	NineRightJ_xuexiceshi	0	0	0	0	0	0	36	1	48	0	8	自	50pct	50pct	0	0	0	0	0	0	0	0	0	0	0
011218	01:56:25	1	1	4.0.10.0	3	2	FiveRightJ	FiveRightJ_xuexi	0	0	0	600	0	0	0	0	0	0	1	+	50pct	50pct	0	7	吃	50	25	1649	3	岁	50	75	1649
011218	01:56:25	1	1	4.0.10.0	3	3	FiveRightJ	FiveRightJ_xuexi	0	0	0	600	0	0	Ctrl+'Q'	1	0	0	1	+	50pct	50pct	0	10	吗	50	25	1649	4	回	50	75	1649
011218	01:58:33	1	1	4.0.10.0	1	2	NineLeftF	NineLeftF_xuexi	0	0	0	1000	0	0	0	0	0	0	1	+	50pct	50pct	0	2	先	50	25	1649	8	访	50	75	1649
011218	01:58:33	1	1	4.0.10.0	1	3	NineLeftF	NineLeftF_xuexi	0	0	0	1000	0	0	0	0	0	0	1	+	50pct	50pct	0	8	优	50	25	1649	5	污	50	75	1649
011218	01:58:33	1	1	4.0.10.0	1	4	NineLeftF	NineLeftF_xuexi	0	0	0	1000	0	0	0	0	0	0	1	+	50pct	50pct	0	4	乒	50	25	1649	9	寻	50	75	1649
011218	01:58:33	1	1	4.0.10.0	1	5	NineLeftF	NineLeftF_xuexi	0	0	0	1000	0	0	0	0	0	0	1	+	50pct	50pct	0	7	伏	50	25	1649	1	问	50	75	1649
011218	01:58:33	1	1	4.0.10.0	1	6	NineLeftF	NineLeftF_xuexi	0	0	0	1000	0	0	0	0	0	0	1	+	50pct	50pct	0	10	延	50	25	1649	10	那	50	75	1649
011218	01:58:33	1	1	4.0.10.0	1	7	NineLeftF	NineLeftF_xuexi	0	0	0	1000	0	0	0	0	0	0	1	+	50pct	50pct	0	5	休	50	25	1649	4	并	50	75	1649
011218	01:58:33	1	1	4.0.10.0	1	8	NineLeftF	NineLeftF_xuexi	0	0	0	1000	0	0	0	0	0	0	1	+	50pct	50pct	0	1	朱	50	25	1649	6	守	50	75	1649
011218	01:58:33	1	1	4.0.10.0	1	9	NineLeftF	NineLeftF_xuexi	0	0	0	1000	0	0	0	0	0	0	1	+	50pct	50pct	0	3	丢	50	25	1649	7	设	50	75	1649
011218	01:58:33	1	1	4.0.10.0	1	10	NineLeftF	NineLeftF_xuexi	0	0	0	1000	0	0	0	0	0	0	1	+	50pct	50pct	0	6	伍	50	25	1649	3	羊	50	75	1649
011218	01:58:33	1	1	4.0.10.0	1	11	NineLeftF	NineLeftF_xuexi	0	0	0	1000	0	0	0	0	0	0	1	+	50pct	50pct	0	9	伐	50	25	1649	2	闯	50	75	1649
011218	01:58:33	1	1	4.0.10.0	1	12	NineLeftF	NineLeftF_buxueceshi	0	0	0	0	0	0	33	1	1074	0	3	导	50pct	50pct	1	0	0	0	0	0	0	0	0	0	0
011218	01:58:33	1	1	4.0.10.0	1	13	NineLeftF	NineLeftF_buxueceshi	0	0	0	0	0	0	33	1	1576	0	8	羽	50pct	50pct	0	0	0	0	0	0	0	0	0	0	0
011218	01:58:33	1	1	4.0.10.0	1	14	NineLeftF	NineLeftF_buxueceshi	0	0	0	0	0	0	33	1	321	0	10	纪	50pct	50pct	0	0	0	0	0	0	0	0	0	0	0
011218	01:58:33	1	1	4.0.10.0	1	15	NineLeftF	NineLeftF_xuexiceshi	0	0	0	0	0	0	33	1	205	0	6	伍	50pct	50pct	1	0	0	0	0	0	0	0	0	0	0
011218	01:58:33	1	1	4.0.10.0	1	16	NineLeftF	NineLeftF_buxueceshi	0	0	0	0	0	0	33	1	197	0	4	异	50pct	50pct	0	0	0	0	0	0	0	0	0	0	0
011218	01:58:33	1	1	4.0.10.0	1	17	NineLeftF	NineLeftF_xuexiceshi	0	0	0	0	0	0	33	1	181	0	5	休	50pct	50pct	1	0	0	0	0	0	0	0	0	0	0
011218	01:58:33	1	1	4.0.10.0	1	18	NineLeftF	NineLeftF_xuexiceshi	0	0	0	0	0	0	33	1	210	0	7	伏	50pct	50pct	0	0	0	0	0	0	0	0	0	0	0
011218	01:58:33	1	1	4.0.10.0	1	19	NineLeftF	NineLeftF_buxueceshi	0	0	0	0	0	0	33	1	180	0	7	戏	50pct	50pct	0	0	0	0	0	0	0	0	0	0	0
011218	01:58:33	1	1	4.0.10.0	1	20	NineLeftF	NineLeftF_xuexiceshi	0	0	0	0	0	0	33	1	175	0	9	伐	50pct	50pct	0	0	0	0	0	0	0	0	0	0	0
011218	01:58:33	1	1	4.0.10.0	1	21	NineLeftF	NineLeftF_xuexiceshi	0	0	0	0	0	0	33	1	187	0	3	丢	50pct	50pct	0	0	0	0	0	0	0	0	0	0	0
011218	01:58:33	1	1	4.0.10.0	1	22	NineLeftF	NineLeftF_xuexiceshi	0	0	0	0	0	0	33	1	186	0	4	乒	50pct	50pct	0	0	0	0	0	0	0	0	0	0	0
011218	01:58:33	1	1	4.0.10.0	1	23	NineLeftF	NineLeftF_xuexiceshi	0	0	0	0	0	0	33	1	202	0	8	优	50pct	50pct	0	0	0	0	0	0	0	0	0	0	0
011218	01:58:33	1	1	4.0.10.0	1	24	NineLeftF	NineLeftF_buxueceshi	0	0	0	0	0	0	33	1	184	0	9	约	50pct	50pct	0	0	0	0	0	0	0	0	0	0	0
011218	01:58:33	1	1	4.0.10.0	1	25	NineLeftF	NineLeftF_buxueceshi	0	0	0	0	0	0	33	1	192	0	1	迅	50pct	50pct	0	0	0	0	0	0	0	0	0	0	0
011218	01:58:33	1	1	4.0.10.0	1	26	NineLeftF	NineLeftF_xuexiceshi	0	0	0	0	0	0	33	1	189	0	1	朱	50pct	50pct	0	0	0	0	0	0	0	0	0	0	0
011218	01:58:33	1	1	4.0.10.0	1	27	NineLeftF	NineLeftF_buxueceshi	0	0	0	0	0	0	33	1	209	0	2	尽	50pct	50pct	0	0	0	0	0	0	0	0	0	0	0
011218	01:58:33	1	1	4.0.10.0	1	28	NineLeftF	NineLeftF_xuexiceshi	0	0	0	0	0	0	33	1	188	0	2	先	50pct	50pct	0	0	0	0	0	0	0	0	0	0	0
011218	01:58:33	1	1	4.0.10.0	1	29	NineLeftF	NineLeftF_buxueceshi	0	0	0	0	0	0	33	1	183	0	6	妈	50pct	50pct	1	0	0	0	0	0	0	0	0	0	0
011218	01:58:33	1	1	4.0.10.0	1	30	NineLeftF	NineLeftF_xuexiceshi	0	0	0	0	0	0	33	1	181	0	10	延	50pct	50pct	1	0	0	0	0	0	0	0	0	0	0
011218	01:58:33	1	1	4.0.10.0	1	31	NineLeftF	NineLeftF_buxueceshi	0	0	0	0	0	0	33	1	176	0	5	孙	50pct	50pct	1	0	0	0	0	0	0	0	0	0	0
011218	01:58:33	1	1	4.0.10.0	2	2	FiveRightJ	FiveRightJ_xuexi	0	0	0	600	0	0	0	0	0	0	1	+	50pct	50pct	0	3	曲	50	25	1649	6	刚	50	75	1649
011218	01:58:33	1	1	4.0.10.0	2	3	FiveRightJ	FiveRightJ_xuexi	0	0	0	600	0	0	Ctrl+'Q'	1	0	0	1	+	50pct	50pct	0	7	吃	50	25	1649	3	岁	50	75	1649
011218	02:02:22	1	1	4.0.10.0	1	2	NineRightJ	NineRightJ_xuexi	0	0	0	1000	0	0	0	0	0	0	1	+	50pct	50pct	0	6	伙	50	25	1651	7	爷	50	75	1651
011218	02:02:22	1	1	4.0.10.0	1	3	NineRightJ	NineRightJ_xuexi	0	0	0	1000	0	0	0	0	0	0	1	+	50pct	50pct	0	4	仰	50	25	1649	3	行	50	75	1649
011218	02:02:22	1	1	4.0.10.0	1	4	NineRightJ	NineRightJ_xuexi	0	0	0	1000	0	0	0	0	0	0	1	+	50pct	50pct	0	7	伪	50	25	1649	1	似	50	75	1649
011218	02:02:22	1	1	4.0.10.0	1	5	NineRightJ	NineRightJ_xuexi	0	0	0	1000	0	0	0	0	0	0	1	+	50pct	50pct	0	3	华	50	25	1649	10	肌	50	75	1649
011218	02:02:22	1	1	4.0.10.0	1	6	NineRightJ	NineRightJ_xuexi	0	0	0	1000	0	0	0	0	0	0	1	+	50pct	50pct	0	10	向	50	25	1649	8	伞	50	75	1649
011218	02:02:22	1	1	4.0.10.0	1	7	NineRightJ	NineRightJ_xuexi	0	0	0	1000	0	0	0	0	0	0	1	+	50pct	50pct	0	1	伤	50	25	1649	2	后	50	75	1649
011218	02:02:22	1	1	4.0.10.0	1	8	NineRightJ	NineRightJ_xuexi	0	0	0	1000	0	0	0	0	0	0	1	+	50pct	50pct	0	9	血	50	25	1649	4	舟	50	75	1649
011218	02:02:22	1	1	4.0.10.0	1	9	NineRightJ	NineRightJ_xuexi	0	0	0	1000	0	0	0	0	0	0	1	+	50pct	50pct	0	8	自	50	25	1649	9	创	50	75	1649
011218	02:02:22	1	1	4.0.10.0	1	10	NineRightJ	NineRightJ_xuexi	0	0	0	1000	0	0	0	0	0	0	1	+	50pct	50pct	0	5	仿	50	25	1649	6	众	50	75	1649
011218	02:02:22	1	1	4.0.10.0	1	11	NineRightJ	NineRightJ_xuexi	0	0	0	1000	0	0	0	0	0	0	1	+	50pct	50pct	0	2	价	50	25	1649	5	全	50	75	1649
011218	02:02:22	1	1	4.0.10.0	1	12	NineRightJ	NineRightJ_xuexiceshi	0	0	0	0	0	0	33	0	2410	0	9	血	50pct	50pct	0	1	+	50pct	50pct	483	0	0	0	0	0
011218	02:02:22	1	1	4.0.10.0	1	13	NineRightJ	NineRightJ_xuexiceshi	0	0	0	0	0	0	33	0	653	0	7	伪	50pct	50pct	0	1	+	50pct	50pct	483	0	0	0	0	0
011218	02:02:22	1	1	4.0.10.0	1	14	NineRightJ	NineRightJ_xuexiceshi	0	0	0	0	0	0	33	0	371	0	10	向	50pct	50pct	0	1	+	50pct	50pct	483	0	0	0	0	0
011218	02:02:22	1	1	4.0.10.0	1	15	NineRightJ	NineRightJ_xuexiceshi	0	0	0	0	0	0	Ctrl+'Q'	1	2688	0	5	仿	50pct	50pct	0	1	+	50pct	50pct	483	0	0	0	0	0
011218	02:03:24	1	1	4.0.10.0	1	2	NineLeftF	NineLeftF_xuexi	0	0	0	1000	0	0	0	0	0	0	1	+	50pct	50pct	0	3	丢	50	25	1649	1	问	50	75	1649
011218	02:03:24	1	1	4.0.10.0	1	3	NineLeftF	NineLeftF_xuexi	0	0	0	1000	0	0	0	0	0	0	1	+	50pct	50pct	0	5	休	50	25	1649	2	闯	50	75	1649
011218	02:03:24	1	1	4.0.10.0	1	4	NineLeftF	NineLeftF_xuexi	0	0	0	1000	0	0	0	0	0	0	1	+	50pct	50pct	0	7	伏	50	25	1649	6	守	50	75	1649
011218	02:03:24	1	1	4.0.10.0	1	5	NineLeftF	NineLeftF_xuexi	0	0	0	1000	0	0	0	0	0	0	1	+	50pct	50pct	0	6	伍	50	25	1649	4	并	50	75	1649
011218	02:03:24	1	1	4.0.10.0	1	6	NineLeftF	NineLeftF_xuexi	0	0	0	1000	0	0	0	0	0	0	1	+	50pct	50pct	0	4	乒	50	25	1649	9	寻	50	75	1649
011218	02:03:24	1	1	4.0.10.0	1	7	NineLeftF	NineLeftF_xuexi	0	0	0	1000	0	0	0	0	0	0	1	+	50pct	50pct	0	9	伐	50	25	1649	5	污	50	75	1649
011218	02:03:24	1	1	4.0.10.0	1	8	NineLeftF	NineLeftF_xuexi	0	0	0	1000	0	0	0	0	0	0	1	+	50pct	50pct	0	10	延	50	25	1649	10	那	50	75	1649
011218	02:03:24	1	1	4.0.10.0	1	9	NineLeftF	NineLeftF_xuexi	0	0	0	1000	0	0	0	0	0	0	1	+	50pct	50pct	0	8	优	50	25	1650	3	羊	50	75	1650
011218	02:03:24	1	1	4.0.10.0	1	10	NineLeftF	NineLeftF_xuexi	0	0	0	1000	0	0	0	0	0	0	1	+	50pct	50pct	0	1	朱	50	25	1649	7	设	50	75	1649
011218	02:03:24	1	1	4.0.10.0	1	11	NineLeftF	NineLeftF_xuexi	0	0	0	1000	0	0	0	0	0	0	1	+	50pct	50pct	0	2	先	50	25	1649	8	访	50	75	1649
011218	02:03:24	1	1	4.0.10.0	1	12	NineLeftF	NineLeftF_buxueceshi	0	0	0	0	0	0	Ctrl+'Q'	1	5504	0	9	约	50pct	50pct	0	1	+	50pct	50pct	483	0	0	0	0	0
011218	02:07:43	1	1	4.0.10.0	1	2	NineLeftF	NineLeftF_xuexi	0	0	0	1000	0	0	0	0	0	0	1	+	50pct	50pct	0	1	朱	50	25	1649	2	闯	50	75	1649
011218	02:07:43	1	1	4.0.10.0	1	3	NineLeftF	NineLeftF_xuexi	0	0	0	1000	0	0	0	0	0	0	1	+	50pct	50pct	0	5	休	50	25	1649	8	访	50	75	1649
011218	02:07:43	1	1	4.0.10.0	1	4	NineLeftF	NineLeftF_xuexi	0	0	0	1000	0	0	0	0	0	0	1	+	50pct	50pct	0	9	伐	50	25	1649	6	守	50	75	1649
011218	02:07:43	1	1	4.0.10.0	1	5	NineLeftF	NineLeftF_xuexi	0	0	0	1000	0	0	0	0	0	0	1	+	50pct	50pct	0	10	延	50	25	1649	5	污	50	75	1649
011218	02:07:43	1	1	4.0.10.0	1	6	NineLeftF	NineLeftF_xuexi	0	0	0	1000	0	0	0	0	0	0	1	+	50pct	50pct	0	4	乒	50	25	1649	1	问	50	75	1649
011218	02:07:43	1	1	4.0.10.0	1	7	NineLeftF	NineLeftF_xuexi	0	0	0	1000	0	0	0	0	0	0	1	+	50pct	50pct	0	6	伍	50	25	1649	4	并	50	75	1649
011218	02:07:43	1	1	4.0.10.0	1	8	NineLeftF	NineLeftF_xuexi	0	0	0	1000	0	0	0	0	0	0	1	+	50pct	50pct	0	2	先	50	25	1649	7	设	50	75	1649
011218	02:07:43	1	1	4.0.10.0	1	9	NineLeftF	NineLeftF_xuexi	0	0	0	1000	0	0	0	0	0	0	1	+	50pct	50pct	0	7	伏	50	25	1649	9	寻	50	75	1649
011218	02:07:43	1	1	4.0.10.0	1	10	NineLeftF	NineLeftF_xuexi	0	0	0	1000	0	0	0	0	0	0	1	+	50pct	50pct	0	3	丢	50	25	1649	3	羊	50	75	1649
011218	02:07:43	1	1	4.0.10.0	1	11	NineLeftF	NineLeftF_xuexi	0	0	0	1000	0	0	0	0	0	0	1	+	50pct	50pct	0	8	优	50	25	1649	10	那	50	75	1649
011218	02:07:43	1	1	4.0.10.0	1	12	NineLeftF	NineLeftF_xuexiceshi	0	0	0	0	0	0	33	1	3127	0	5	休	50pct	50pct	0	1		50pct	50pct	483	0	0	0	0	0
011218	02:07:43	1	1	4.0.10.0	1	13	NineLeftF	NineLeftF_xuexiceshi	0	0	0	0	0	0	36	0	1400	0	6	伍	50pct	50pct	5	1		50pct	50pct	483	0	0	0	0	0
011218	02:07:43	1	1	4.0.10.0	1	14	NineLeftF	NineLeftF_buxueceshi	0	0	0	0	0	0	36	0	509	0	5	孙	50pct	50pct	0	1		50pct	50pct	483	0	0	0	0	0
011218	02:07:43	1	1	4.0.10.0	1	15	NineLeftF	NineLeftF_xuexiceshi	0	0	0	0	0	0	36	0	488	0	3	丢	50pct	50pct	0	1		50pct	50pct	483	0	0	0	0	0
011218	02:07:43	1	1	4.0.10.0	1	16	NineLeftF	NineLeftF_buxueceshi	0	0	0	0	0	0	36	0	625	0	1	迅	50pct	50pct	0	1		50pct	50pct	483	0	0	0	0	0
011218	02:07:43	1	1	4.0.10.0	1	17	NineLeftF	NineLeftF_xuexiceshi	0	0	0	0	0	0	33	1	426	0	10	延	50pct	50pct	1	1		50pct	50pct	484	0	0	0	0	0
011218	02:07:43	1	1	4.0.10.0	1	18	NineLeftF	NineLeftF_xuexiceshi	0	0	0	0	0	0	33	1	578	0	1	朱	50pct	50pct	0	1		50pct	50pct	483	0	0	0	0	0
011218	02:07:43	1	1	4.0.10.0	1	19	NineLeftF	NineLeftF_xuexiceshi	0	0	0	0	0	0	36	0	538	0	8	优	50pct	50pct	0	1		50pct	50pct	483	0	0	0	0	0
011218	02:07:43	1	1	4.0.10.0	1	20	NineLeftF	NineLeftF_buxueceshi	0	0	0	0	0	0	33	1	662	0	8	羽	50pct	50pct	0	1		50pct	50pct	483	0	0	0	0	0
011218	02:07:43	1	1	4.0.10.0	1	21	NineLeftF	NineLeftF_xuexiceshi	0	0	0	0	0	0	36	0	599	0	4	乒	50pct	50pct	0	1		50pct	50pct	483	0	0	0	0	0
011218	02:07:43	1	1	4.0.10.0	1	22	NineLeftF	NineLeftF_xuexiceshi	0	0	0	0	0	0	33	1	514	0	9	伐	50pct	50pct	0	1		50pct	50pct	483	0	0	0	0	0
011218	02:07:43	1	1	4.0.10.0	1	23	NineLeftF	NineLeftF_buxueceshi	0	0	0	0	0	0	36	0	334	0	10	纪	50pct	50pct	0	1		50pct	50pct	483	0	0	0	0	0
011218	02:07:43	1	1	4.0.10.0	1	24	NineLeftF	NineLeftF_buxueceshi	0	0	0	0	0	0	33	1	298	0	3	导	50pct	50pct	0	1		50pct	50pct	483	0	0	0	0	0
011218	02:07:43	1	1	4.0.10.0	1	25	NineLeftF	NineLeftF_xuexiceshi	0	0	0	0	0	0	36	0	510	0	2	先	50pct	50pct	0	1		50pct	50pct	483	0	0	0	0	0
011218	02:07:43	1	1	4.0.10.0	1	26	NineLeftF	NineLeftF_buxueceshi	0	0	0	0	0	0	33	1	353	0	7	戏	50pct	50pct	0	1		50pct	50pct	483	0	0	0	0	0
011218	02:07:43	1	1	4.0.10.0	1	27	NineLeftF	NineLeftF_xuexiceshi	0	0	0	0	0	0	36	0	370	0	7	伏	50pct	50pct	0	1		50pct	50pct	483	0	0	0	0	0
011218	02:07:43	1	1	4.0.10.0	1	28	NineLeftF	NineLeftF_buxueceshi	0	0	0	0	0	0	Ctrl+'Q'	1	1357	0	2	尽	50pct	50pct	0	1		50pct	50pct	483	0	0	0	0	0
011218	02:12:52	1	1	4.0.10.0	1	2	NineRightJ	NineRightJ_xuexi	0	0	0	1000	0	0	0	0	0	0	1	+	50pct	50pct	0	10	向	50	25	1649	5	全	50	75	1649
011218	02:12:52	1	1	4.0.10.0	1	3	NineRightJ	NineRightJ_xuexi	0	0	0	1000	0	0	0	0	0	0	1	+	50pct	50pct	0	4	仰	50	25	1649	10	肌	50	75	1649
011218	02:12:52	1	1	4.0.10.0	1	4	NineRightJ	NineRightJ_xuexi	0	0	0	1000	0	0	0	0	0	0	1	+	50pct	50pct	0	6	伙	50	25	1649	7	爷	50	75	1649
011218	02:12:52	1	1	4.0.10.0	1	5	NineRightJ	NineRightJ_xuexi	0	0	0	1000	0	0	0	0	0	0	1	+	50pct	50pct	0	8	自	50	25	1649	9	创	50	75	1649
011218	02:12:52	1	1	4.0.10.0	1	6	NineRightJ	NineRightJ_xuexi	0	0	0	1000	0	0	0	0	0	0	1	+	50pct	50pct	0	9	血	50	25	1649	3	行	50	75	1649
011218	02:12:52	1	1	4.0.10.0	1	7	NineRightJ	NineRightJ_xuexi	0	0	0	1000	0	0	0	0	0	0	1	+	50pct	50pct	0	1	伤	50	25	1649	2	后	50	75	1649
011218	02:12:52	1	1	4.0.10.0	1	8	NineRightJ	NineRightJ_xuexi	0	0	0	1000	0	0	0	0	0	0	1	+	50pct	50pct	0	7	伪	50	25	1649	6	众	50	75	1649
011218	02:12:52	1	1	4.0.10.0	1	9	NineRightJ	NineRightJ_xuexi	0	0	0	1000	0	0	0	0	0	0	1	+	50pct	50pct	0	5	仿	50	25	1649	4	舟	50	75	1649
011218	02:12:52	1	1	4.0.10.0	1	10	NineRightJ	NineRightJ_xuexi	0	0	0	1000	0	0	0	0	0	0	1	+	50pct	50pct	0	2	价	50	25	1649	8	伞	50	75	1649
011218	02:12:52	1	1	4.0.10.0	1	11	NineRightJ	NineRightJ_xuexi	0	0	0	1000	0	0	0	0	0	0	1	+	50pct	50pct	0	3	华	50	25	1649	1	似	50	75	1649
011218	02:12:52	1	1	4.0.10.0	1	12	NineRightJ	NineRightJ_buxueceshi	0	0	0	0	0	0	Ctrl+'Q'	1	9295	0	7	多	50pct	50pct	0	1	好感f.bmp	50pct	50pct	483	0	0	0	0	0
011218	02:13:51	1	1	4.0.10.0	1	2	NineLeftF	NineLeftF_xuexi	0	0	0	1000	0	0	0	0	0	0	1	+	50pct	50pct	0	5	休	50	25	1649	5	污	50	75	1649
011218	02:13:51	1	1	4.0.10.0	1	3	NineLeftF	NineLeftF_xuexi	0	0	0	1000	0	0	0	0	0	0	1	+	50pct	50pct	0	4	乒	50	25	1649	2	闯	50	75	1649
011218	02:13:51	1	1	4.0.10.0	1	4	NineLeftF	NineLeftF_xuexi	0	0	0	1000	0	0	0	0	0	0	1	+	50pct	50pct	0	10	延	50	25	1649	3	羊	50	75	1649
011218	02:13:51	1	1	4.0.10.0	1	5	NineLeftF	NineLeftF_xuexi	0	0	0	1000	0	0	0	0	0	0	1	+	50pct	50pct	0	8	优	50	25	1651	4	并	50	75	1651
011218	02:13:51	1	1	4.0.10.0	1	6	NineLeftF	NineLeftF_xuexi	0	0	0	1000	0	0	0	0	0	0	1	+	50pct	50pct	0	1	朱	50	25	1649	1	问	50	75	1649
011218	02:13:51	1	1	4.0.10.0	1	7	NineLeftF	NineLeftF_xuexi	0	0	0	1000	0	0	0	0	0	0	1	+	50pct	50pct	0	6	伍	50	25	1649	6	守	50	75	1649
011218	02:13:51	1	1	4.0.10.0	1	8	NineLeftF	NineLeftF_xuexi	0	0	0	1000	0	0	0	0	0	0	1	+	50pct	50pct	0	7	伏	50	25	1649	9	寻	50	75	1649
011218	02:13:51	1	1	4.0.10.0	1	9	NineLeftF	NineLeftF_xuexi	0	0	0	1000	0	0	0	0	0	0	1	+	50pct	50pct	0	3	丢	50	25	1649	7	设	50	75	1649
011218	02:13:51	1	1	4.0.10.0	1	10	NineLeftF	NineLeftF_xuexi	0	0	0	1000	0	0	0	0	0	0	1	+	50pct	50pct	0	9	伐	50	25	1649	8	访	50	75	1649
011218	02:13:51	1	1	4.0.10.0	1	11	NineLeftF	NineLeftF_xuexi	0	0	0	1000	0	0	0	0	0	0	1	+	50pct	50pct	0	2	先	50	25	1649	10	那	50	75	1649
011218	02:13:51	1	1	4.0.10.0	1	12	NineLeftF	NineLeftF_buxueceshi	0	0	0	0	0	0	33	1	2728	0	5	孙	50pct	50pct	0	1	好感f.bmp	50pct	50pct	483	0	0	0	0	0
011218	02:13:51	1	1	4.0.10.0	1	13	NineLeftF	NineLeftF_xuexiceshi	0	0	0	0	0	0	36	0	1431	0	2	先	50pct	50pct	0	3	练习.bmp	50pct	50pct	483	0	0	0	0	0
011218	02:13:51	1	1	4.0.10.0	1	14	NineLeftF	NineLeftF_buxueceshi	0	0	0	0	0	0	33	1	486	0	10	纪	50pct	50pct	0	2	好感j.bmp	50pct	50pct	484	0	0	0	0	0
011218	02:13:51	1	1	4.0.10.0	1	15	NineLeftF	NineLeftF_xuexiceshi	0	0	0	0	0	0	36	0	604	0	4	乒	50pct	50pct	0	1	好感f.bmp	50pct	50pct	483	0	0	0	0	0
011218	02:13:51	1	1	4.0.10.0	1	16	NineLeftF	NineLeftF_xuexiceshi	0	0	0	0	0	0	33	1	289	0	6	伍	50pct	50pct	0	3	练习.bmp	50pct	50pct	483	0	0	0	0	0
011218	02:13:51	1	1	4.0.10.0	1	17	NineLeftF	NineLeftF_buxueceshi	0	0	0	0	0	0	36	0	440	0	9	约	50pct	50pct	0	2	好感j.bmp	50pct	50pct	483	0	0	0	0	0
011218	02:13:51	1	1	4.0.10.0	1	18	NineLeftF	NineLeftF_xuexiceshi	0	0	0	0	0	0	33	1	509	0	3	丢	50pct	50pct	0	1	好感f.bmp	50pct	50pct	483	0	0	0	0	0
011218	02:13:51	1	1	4.0.10.0	1	19	NineLeftF	NineLeftF_buxueceshi	0	0	0	0	0	0	36	0	480	0	7	戏	50pct	50pct	0	2	好感j.bmp	50pct	50pct	483	0	0	0	0	0
011218	02:13:51	1	1	4.0.10.0	1	20	NineLeftF	NineLeftF_xuexiceshi	0	0	0	0	0	0	33	1	384	0	1	朱	50pct	50pct	0	3	练习.bmp	50pct	50pct	483	0	0	0	0	0
011218	02:13:51	1	1	4.0.10.0	1	21	NineLeftF	NineLeftF_xuexiceshi	0	0	0	0	0	0	36	0	286	0	9	伐	50pct	50pct	0	1	好感f.bmp	50pct	50pct	485	0	0	0	0	0
011218	02:13:51	1	1	4.0.10.0	1	22	NineLeftF	NineLeftF_xuexiceshi	0	0	0	0	0	0	33	1	271	0	10	延	50pct	50pct	0	3	练习.bmp	50pct	50pct	483	0	0	0	0	0
011218	02:13:51	1	1	4.0.10.0	1	23	NineLeftF	NineLeftF_buxueceshi	0	0	0	0	0	0	36	0	252	0	4	异	50pct	50pct	0	2	好感j.bmp	50pct	50pct	483	0	0	0	0	0
011218	02:13:51	1	1	4.0.10.0	1	24	NineLeftF	NineLeftF_xuexiceshi	0	0	0	0	0	0	Ctrl+'Q'	1	2253	0	7	伏	50pct	50pct	0	2	好感j.bmp	50pct	50pct	483	0	0	0	0	0
011218	02:14:55	1	1	4.0.10.0	1	2	FiveRightJ	FiveRightJ_xuexi	0	0	0	600	0	0	0	0	0	0	1	+	50pct	50pct	0	3	曲	50	25	1649	1	屿	50	75	1649
011218	02:14:55	1	1	4.0.10.0	1	3	FiveRightJ	FiveRightJ_xuexi	0	0	0	600	0	0	0	0	0	0	1	+	50pct	50pct	0	8	因	50	25	1649	7	则	50	75	1649
011218	02:14:55	1	1	4.0.10.0	1	4	FiveRightJ	FiveRightJ_xuexi	0	0	0	600	0	0	0	0	0	0	1	+	50pct	50pct	0	5	同	50	25	1649	8	肉	50	75	1649
011218	02:14:55	1	1	4.0.10.0	1	5	FiveRightJ	FiveRightJ_xuexi	0	0	0	600	0	0	0	0	0	0	1	+	50pct	50pct	0	7	吃	50	25	1649	4	回	50	75	1649
011218	02:14:55	1	1	4.0.10.0	1	6	FiveRightJ	FiveRightJ_xuexi	0	0	0	600	0	0	0	0	0	0	1	+	50pct	50pct	0	9	吸	50	25	1649	9	网	50	75	1649
011218	02:14:55	1	1	4.0.10.0	1	7	FiveRightJ	FiveRightJ_xuexi	0	0	0	600	0	0	0	0	0	0	1	+	50pct	50pct	0	10	吗	50	25	1649	6	刚	50	75	1649
011218	02:14:55	1	1	4.0.10.0	1	8	FiveRightJ	FiveRightJ_xuexi	0	0	0	600	0	0	0	0	0	0	1	+	50pct	50pct	0	6	吊	50	25	1649	10	年	50	75	1649
011218	02:14:55	1	1	4.0.10.0	1	9	FiveRightJ	FiveRightJ_xuexi	0	0	0	600	0	0	0	0	0	0	1	+	50pct	50pct	0	1	吓	50	25	1649	3	岁	50	75	1649
011218	02:14:55	1	1	4.0.10.0	1	10	FiveRightJ	FiveRightJ_xuexi	0	0	0	600	0	0	0	0	0	0	1	+	50pct	50pct	0	2	虫	50	25	1649	2	帆	50	75	1649
011218	02:14:55	1	1	4.0.10.0	1	11	FiveRightJ	FiveRightJ_xuexi	0	0	0	600	0	0	0	0	0	0	1	+	50pct	50pct	0	4	团	50	25	1649	5	岂	50	75	1649
011218	02:14:55	1	1	4.0.10.0	1	12	FiveRightJ	FiveRightJ_buxueceshi	0	0	0	0	0	0	36	1	1605	0	10	闭	50pct	50pct	0	1	挡板.bmp	50pct	50pct	483	0	0	0	0	0
011218	02:14:55	1	1	4.0.10.0	1	13	FiveRightJ	FiveRightJ_xuexiceshi	0	0	0	0	0	0	36	1	876	0	8	因	50pct	50pct	2	1	挡板.bmp	50pct	50pct	483	0	0	0	0	0
011218	02:14:55	1	1	4.0.10.0	1	14	FiveRightJ	FiveRightJ_xuexiceshi	0	0	0	0	0	0	33	0	1027	0	2	虫	50pct	50pct	0	1	挡板.bmp	50pct	50pct	483	0	0	0	0	0
011218	02:14:55	1	1	4.0.10.0	1	15	FiveRightJ	FiveRightJ_xuexiceshi	0	0	0	0	0	0	36	1	915	0	7	吃	50pct	50pct	0	1	挡板.bmp	50pct	50pct	485	0	0	0	0	0
011218	02:14:55	1	1	4.0.10.0	1	16	FiveRightJ	FiveRightJ_xuexiceshi	0	0	0	0	0	0	36	1	59	0	1	吓	50pct	50pct	0	1	挡板.bmp	50pct	50pct	483	0	0	0	0	0
011218	02:14:55	1	1	4.0.10.0	1	17	FiveRightJ	FiveRightJ_xuexiceshi	0	0	0	0	0	0	36	1	0	0	6	吊	50pct	50pct	0	1	挡板.bmp	50pct	50pct	483	0	0	0	0	0
011218	02:14:55	1	1	4.0.10.0	1	18	FiveRightJ	FiveRightJ_buxueceshi	0	0	0	0	0	0	36	1	756	0	7	齐	50pct	50pct	0	1	挡板.bmp	50pct	50pct	484	0	0	0	0	0
011218	02:14:55	1	1	4.0.10.0	1	19	FiveRightJ	FiveRightJ_buxueceshi	0	0	0	0	0	0	36	1	82	0	8	交	50pct	50pct	0	1	挡板.bmp	50pct	50pct	483	0	0	0	0	0
011218	02:14:55	1	1	4.0.10.0	1	20	FiveRightJ	FiveRightJ_xuexiceshi	0	0	0	0	0	0	36	1	97	0	10	吗	50pct	50pct	0	1	挡板.bmp	50pct	50pct	483	0	0	0	0	0
011218	02:14:55	1	1	4.0.10.0	1	21	FiveRightJ	FiveRightJ_xuexiceshi	0	0	0	0	0	0	Ctrl+'Q'	1	586	0	9	吸	50pct	50pct	0	1	挡板.bmp	50pct	50pct	483	0	0	0	0	0
011218	02:18:36	1	1	4.0.10.0	1	2	FiveRightJ	FiveRightJ_xuexi	0	0	0	600	0	0	0	0	500	0	1	+	50pct	50pct	0	3	曲	50	25	99	2	帆	50	75	99
011218	02:18:36	1	1	4.0.10.0	1	3	FiveRightJ	FiveRightJ_xuexi	0	0	0	600	0	0	0	0	500	0	1	+	50pct	50pct	0	6	吊	50	25	99	8	肉	50	75	99
011218	02:18:36	1	1	4.0.10.0	1	4	FiveRightJ	FiveRightJ_xuexi	0	0	0	600	0	0	0	0	500	0	1	+	50pct	50pct	0	2	虫	50	25	99	6	刚	50	75	99
011218	02:18:36	1	1	4.0.10.0	1	5	FiveRightJ	FiveRightJ_xuexi	0	0	0	600	0	0	0	0	500	0	1	+	50pct	50pct	0	8	因	50	25	99	1	屿	50	75	99
011218	02:18:36	1	1	4.0.10.0	1	6	FiveRightJ	FiveRightJ_xuexi	0	0	0	600	0	0	0	0	500	0	1	+	50pct	50pct	0	4	团	50	25	99	7	则	50	75	99
011218	02:18:36	1	1	4.0.10.0	1	7	FiveRightJ	FiveRightJ_xuexi	0	0	0	600	0	0	0	0	500	0	1	+	50pct	50pct	0	5	同	50	25	99	10	年	50	75	99
011218	02:18:36	1	1	4.0.10.0	1	8	FiveRightJ	FiveRightJ_xuexi	0	0	0	600	0	0	0	0	500	0	1	+	50pct	50pct	0	1	吓	50	25	99	4	回	50	75	99
011218	02:18:36	1	1	4.0.10.0	1	9	FiveRightJ	FiveRightJ_xuexi	0	0	0	600	0	0	0	0	500	0	1	+	50pct	50pct	0	9	吸	50	25	99	5	岂	50	75	99
011218	02:18:36	1	1	4.0.10.0	1	10	FiveRightJ	FiveRightJ_xuexi	0	0	0	600	0	0	0	0	500	0	1	+	50pct	50pct	0	10	吗	50	25	99	9	网	50	75	99
011218	02:18:36	1	1	4.0.10.0	1	11	FiveRightJ	FiveRightJ_xuexi	0	0	0	600	0	0	0	0	500	0	1	+	50pct	50pct	0	7	吃	50	25	99	3	岁	50	75	99
011218	02:18:36	1	1	4.0.10.0	1	12	FiveRightJ	FiveRightJ_xuexiceshi	0	0	0	0	0	0	36	1	1774	0	2	虫	50pct	50pct	0	1	挡板.bmp	50pct	50pct	33	0	0	0	0	0
011218	02:18:36	1	1	4.0.10.0	1	13	FiveRightJ	FiveRightJ_xuexiceshi	0	0	0	0	0	0	36	1	1342	0	9	吸	50pct	50pct	0	1	挡板.bmp	50pct	50pct	35	0	0	0	0	0
011218	02:18:36	1	1	4.0.10.0	1	14	FiveRightJ	FiveRightJ_buxueceshi	0	0	0	0	0	0	33	0	1015	0	7	齐	50pct	50pct	0	1	挡板.bmp	50pct	50pct	33	0	0	0	0	0
011218	02:18:36	1	1	4.0.10.0	1	15	FiveRightJ	FiveRightJ_xuexiceshi	0	0	0	0	0	0	33	0	854	0	1	吓	50pct	50pct	0	1	挡板.bmp	50pct	50pct	33	0	0	0	0	0
011218	02:18:36	1	1	4.0.10.0	1	16	FiveRightJ	FiveRightJ_xuexiceshi	0	0	0	0	0	0	36	1	1195	0	4	团	50pct	50pct	0	1	挡板.bmp	50pct	50pct	33	0	0	0	0	0
011218	02:18:36	1	1	4.0.10.0	1	17	FiveRightJ	FiveRightJ_buxueceshi	0	0	0	0	0	0	33	0	773	0	6	刘	50pct	50pct	0	1	挡板.bmp	50pct	50pct	33	0	0	0	0	0
011218	02:18:36	1	1	4.0.10.0	1	18	FiveRightJ	FiveRightJ_buxueceshi	0	0	0	0	0	0	36	1	633	0	5	亦	50pct	50pct	0	1	挡板.bmp	50pct	50pct	33	0	0	0	0	0
011218	02:18:36	1	1	4.0.10.0	1	19	FiveRightJ	FiveRightJ_buxueceshi	0	0	0	0	0	0	33	0	688	0	4	庆	50pct	50pct	0	1	挡板.bmp	50pct	50pct	33	0	0	0	0	0
011218	02:18:36	1	1	4.0.10.0	1	20	FiveRightJ	FiveRightJ_buxueceshi	0	0	0	0	0	0	36	1	570	0	10	闭	50pct	50pct	1	1	挡板.bmp	50pct	50pct	33	0	0	0	0	0
011218	02:18:36	1	1	4.0.10.0	1	21	FiveRightJ	FiveRightJ_xuexiceshi	0	0	0	0	0	0	33	0	645	0	7	吃	50pct	50pct	0	1	挡板.bmp	50pct	50pct	34	0	0	0	0	0
011218	02:18:36	1	1	4.0.10.0	1	22	FiveRightJ	FiveRightJ_buxueceshi	0	0	0	0	0	0	36	1	826	0	8	交	50pct	50pct	0	1	挡板.bmp	50pct	50pct	33	0	0	0	0	0
011218	02:18:36	1	1	4.0.10.0	1	23	FiveRightJ	FiveRightJ_xuexiceshi	0	0	0	0	0	0	33	0	603	0	8	因	50pct	50pct	0	1	挡板.bmp	50pct	50pct	33	0	0	0	0	0
011218	02:18:36	1	1	4.0.10.0	1	24	FiveRightJ	FiveRightJ_buxueceshi	0	0	0	0	0	0	36	1	1200	0	2	冰	50pct	50pct	0	1	挡板.bmp	50pct	50pct	33	0	0	0	0	0
011218	02:18:36	1	1	4.0.10.0	1	25	FiveRightJ	FiveRightJ_buxueceshi	0	0	0	0	0	0	33	0	877	0	3	庄	50pct	50pct	0	1	挡板.bmp	50pct	50pct	33	0	0	0	0	0
011218	02:18:36	1	1	4.0.10.0	1	26	FiveRightJ	FiveRightJ_xuexiceshi	0	0	0	0	0	0	36	1	929	0	5	同	50pct	50pct	0	1	挡板.bmp	50pct	50pct	33	0	0	0	0	0
011218	02:18:36	1	1	4.0.10.0	1	27	FiveRightJ	FiveRightJ_xuexiceshi	0	0	0	0	0	0	33	0	860	0	10	吗	50pct	50pct	0	1	挡板.bmp	50pct	50pct	34	0	0	0	0	0
011218	02:18:36	1	1	4.0.10.0	1	28	FiveRightJ	FiveRightJ_buxueceshi	0	0	0	0	0	0	36	1	703	0	9	妄	50pct	50pct	0	1	挡板.bmp	50pct	50pct	33	0	0	0	0	0
011218	02:18:36	1	1	4.0.10.0	1	29	FiveRightJ	FiveRightJ_xuexiceshi	0	0	0	0	0	0	33	0	298	0	3	曲	50pct	50pct	0	1	挡板.bmp	50pct	50pct	33	0	0	0	0	0
011218	02:18:36	1	1	4.0.10.0	1	30	FiveRightJ	FiveRightJ_buxueceshi	0	0	0	0	0	0	36	1	328	0	1	冲	50pct	50pct	0	1	挡板.bmp	50pct	50pct	33	0	0	0	0	0
011218	02:18:36	1	1	4.0.10.0	1	31	FiveRightJ	FiveRightJ_xuexiceshi	0	0	0	0	0	0	33	0	263	0	6	吊	50pct	50pct	0	1	挡板.bmp	50pct	50pct	33	0	0	0	0	0
011218	02:19:19	1	1	4.0.10.0	1	2	FiveLeftF	FiveLeftF_xuexi	0	0	0	600	0	0	0	0	500	0	1	+	50pct	50pct	0	7	扩	50	25	99	10	迈	50	75	99
011218	02:19:19	1	1	4.0.10.0	1	3	FiveLeftF	FiveLeftF_xuexi	0	0	0	600	0	0	0	0	500	0	1	+	50pct	50pct	0	10	耳	50	25	99	6	灰	50	75	99
011218	02:19:19	1	1	4.0.10.0	1	4	FiveLeftF	FiveLeftF_xuexi	0	0	0	600	0	0	0	0	500	0	1	+	50pct	50pct	0	1	式	50	25	99	1	共	50	75	99
011218	02:19:19	1	1	4.0.10.0	1	5	FiveLeftF	FiveLeftF_xuexi	0	0	0	600	0	0	0	0	500	0	1	+	50pct	50pct	0	2	刑	50	25	100	3	臣	50	75	100
011218	02:19:19	1	1	4.0.10.0	1	6	FiveLeftF	FiveLeftF_xuexi	0	0	0	600	0	0	0	0	500	0	1	+	50pct	50pct	0	4	扛	50	25	99	8	邪	50	75	99
011218	02:19:19	1	1	4.0.10.0	1	7	FiveLeftF	FiveLeftF_xuexi	0	0	0	600	0	0	0	0	500	0	1	+	50pct	50pct	0	3	动	50	25	99	7	达	50	75	99
011218	02:19:19	1	1	4.0.10.0	1	8	FiveLeftF	FiveLeftF_xuexi	0	0	0	600	0	0	0	0	500	0	1	+	50pct	50pct	0	5	寺	50	25	99	5	协	50	75	99
011218	02:19:19	1	1	4.0.10.0	1	9	FiveLeftF	FiveLeftF_xuexi	0	0	0	600	0	0	0	0	500	0	1	+	50pct	50pct	0	8	扫	50	25	99	9	划	50	75	99
011218	02:19:19	1	1	4.0.10.0	1	10	FiveLeftF	FiveLeftF_xuexi	0	0	0	600	0	0	0	0	500	0	1	+	50pct	50pct	0	9	场	50	25	99	2	过	50	75	99
011218	02:19:19	1	1	4.0.10.0	1	11	FiveLeftF	FiveLeftF_xuexi	0	0	0	600	0	0	0	0	500	0	1	+	50pct	50pct	0	6	吉	50	25	99	4	再	50	75	99
011218	02:19:19	1	1	4.0.10.0	1	12	FiveLeftF	FiveLeftF_buxueceshi	0	0	0	0	0	0	36	0	1538	0	8	当	50pct	50pct	0	1	挡板.bmp	50pct	50pct	33	0	0	0	0	0
011218	02:19:19	1	1	4.0.10.0	1	13	FiveLeftF	FiveLeftF_xuexiceshi	0	0	0	0	0	0	36	0	1362	0	3	动	50pct	50pct	2	1	挡板.bmp	50pct	50pct	33	0	0	0	0	0
011218	02:19:19	1	1	4.0.10.0	1	14	FiveLeftF	FiveLeftF_xuexiceshi	0	0	0	0	0	0	36	0	1828	0	5	寺	50pct	50pct	0	1	挡板.bmp	50pct	50pct	33	0	0	0	0	0
011218	02:19:19	1	1	4.0.10.0	1	15	FiveLeftF	FiveLeftF_xuexiceshi	0	0	0	0	0	0	36	0	1065	0	8	扫	50pct	50pct	0	1	挡板.bmp	50pct	50pct	33	0	0	0	0	0
011218	02:19:19	1	1	4.0.10.0	1	16	FiveLeftF	FiveLeftF_buxueceshi	0	0	0	0	0	0	36	0	617	0	4	贞	50pct	50pct	0	1	挡板.bmp	50pct	50pct	33	0	0	0	0	0
011218	02:19:19	1	1	4.0.10.0	1	17	FiveLeftF	FiveLeftF_xuexiceshi	0	0	0	0	0	0	36	0	674	0	6	吉	50pct	50pct	0	1	挡板.bmp	50pct	50pct	33	0	0	0	0	0
011218	02:19:19	1	1	4.0.10.0	1	18	FiveLeftF	FiveLeftF_buxueceshi	0	0	0	0	0	0	36	0	464	0	10	吐	50pct	50pct	0	1	挡板.bmp	50pct	50pct	33	0	0	0	0	0
011218	02:19:19	1	1	4.0.10.0	1	19	FiveLeftF	FiveLeftF_xuexiceshi	0	0	0	0	0	0	36	0	252	0	2	刑	50pct	50pct	0	1	挡板.bmp	50pct	50pct	33	0	0	0	0	0
011218	02:19:19	1	1	4.0.10.0	1	20	FiveLeftF	FiveLeftF_xuexiceshi	0	0	0	0	0	0	36	0	199	0	1	式	50pct	50pct	0	1	挡板.bmp	50pct	50pct	33	0	0	0	0	0
011218	02:19:19	1	1	4.0.10.0	1	21	FiveLeftF	FiveLeftF_xuexiceshi	0	0	0	0	0	0	36	0	172	0	9	场	50pct	50pct	0	1	挡板.bmp	50pct	50pct	33	0	0	0	0	0
011218	02:19:19	1	1	4.0.10.0	1	22	FiveLeftF	FiveLeftF_buxueceshi	0	0	0	0	0	0	36	0	171	0	2	至	50pct	50pct	0	1	挡板.bmp	50pct	50pct	33	0	0	0	0	0
011218	02:19:19	1	1	4.0.10.0	1	23	FiveLeftF	FiveLeftF_buxueceshi	0	0	0	0	0	0	36	0	151	0	5	师	50pct	50pct	0	1	挡板.bmp	50pct	50pct	33	0	0	0	0	0
011218	02:19:19	1	1	4.0.10.0	1	24	FiveLeftF	FiveLeftF_buxueceshi	0	0	0	0	0	0	36	0	322	0	9	早	50pct	50pct	0	1	挡板.bmp	50pct	50pct	33	0	0	0	0	0
011218	02:19:19	1	1	4.0.10.0	1	25	FiveLeftF	FiveLeftF_buxueceshi	0	0	0	0	0	0	36	0	159	0	7	尖	50pct	50pct	1	1	挡板.bmp	50pct	50pct	33	0	0	0	0	0
011218	02:19:19	1	1	4.0.10.0	1	26	FiveLeftF	FiveLeftF_xuexiceshi	0	0	0	0	0	0	36	0	125	0	7	扩	50pct	50pct	0	1	挡板.bmp	50pct	50pct	33	0	0	0	0	0
011218	02:19:19	1	1	4.0.10.0	1	27	FiveLeftF	FiveLeftF_xuexiceshi	0	0	0	0	0	0	36	0	560	0	10	耳	50pct	50pct	0	1	挡板.bmp	50pct	50pct	33	0	0	0	0	0
011218	02:19:19	1	1	4.0.10.0	1	28	FiveLeftF	FiveLeftF_buxueceshi	0	0	0	0	0	0	36	0	492	0	1	毕	50pct	50pct	0	1	挡板.bmp	50pct	50pct	33	0	0	0	0	0
011218	02:19:19	1	1	4.0.10.0	1	29	FiveLeftF	FiveLeftF_xuexiceshi	0	0	0	0	0	0	36	0	330	0	4	扛	50pct	50pct	0	1	挡板.bmp	50pct	50pct	33	0	0	0	0	0
011218	02:19:19	1	1	4.0.10.0	1	30	FiveLeftF	FiveLeftF_buxueceshi	0	0	0	0	0	0	36	0	274	0	6	尘	50pct	50pct	0	1	挡板.bmp	50pct	50pct	33	0	0	0	0	0
011218	02:19:19	1	1	4.0.10.0	1	31	FiveLeftF	FiveLeftF_buxueceshi	0	0	0	0	0	0	36	0	284	0	3	此	50pct	50pct	0	1	挡板.bmp	50pct	50pct	33	0	0	0	0	0
011218	02:20:12	1	1	4.0.10.0	1	2	FiveRightJ	FiveRightJ_xuexi	0	0	0	600	0	0	0	0	500	0	1	+	50pct	50pct	0	9	吸	50	25	99	5	岂	50	75	99
011218	02:20:12	1	1	4.0.10.0	1	3	FiveRightJ	FiveRightJ_xuexi	0	0	0	600	0	0	0	0	500	0	1	+	50pct	50pct	0	7	吃	50	25	99	6	刚	50	75	99
011218	02:20:12	1	1	4.0.10.0	1	4	FiveRightJ	FiveRightJ_xuexi	0	0	0	600	0	0	0	0	500	0	1	+	50pct	50pct	0	10	吗	50	25	99	1	屿	50	75	99
011218	02:20:12	1	1	4.0.10.0	1	5	FiveRightJ	FiveRightJ_xuexi	0	0	0	600	0	0	0	0	500	0	1	+	50pct	50pct	0	3	曲	50	25	99	7	则	50	75	99
011218	02:20:12	1	1	4.0.10.0	1	6	FiveRightJ	FiveRightJ_xuexi	0	0	0	600	0	0	0	0	500	0	1	+	50pct	50pct	0	6	吊	50	25	99	10	年	50	75	99
011218	02:20:12	1	1	4.0.10.0	1	7	FiveRightJ	FiveRightJ_xuexi	0	0	0	600	0	0	0	0	500	0	1	+	50pct	50pct	0	8	因	50	25	99	2	帆	50	75	99
011218	02:20:12	1	1	4.0.10.0	1	8	FiveRightJ	FiveRightJ_xuexi	0	0	0	600	0	0	0	0	500	0	1	+	50pct	50pct	0	4	团	50	25	99	4	回	50	75	99
011218	02:20:12	1	1	4.0.10.0	1	9	FiveRightJ	FiveRightJ_xuexi	0	0	0	600	0	0	0	0	500	0	1	+	50pct	50pct	0	1	吓	50	25	99	3	岁	50	75	99
011218	02:20:12	1	1	4.0.10.0	1	10	FiveRightJ	FiveRightJ_xuexi	0	0	0	600	0	0	0	0	500	0	1	+	50pct	50pct	0	5	同	50	25	99	8	肉	50	75	99
011218	02:20:12	1	1	4.0.10.0	1	11	FiveRightJ	FiveRightJ_xuexi	0	0	0	600	0	0	0	0	500	0	1	+	50pct	50pct	0	2	虫	50	25	99	9	网	50	75	99
011218	02:20:12	1	1	4.0.10.0	1	12	FiveRightJ	FiveRightJ_buxueceshi	0	0	0	0	0	0	36	1	2665	0	1	冲	50pct	50pct	0	1	挡板.bmp	50pct	50pct	0	0	0	0	0	0
011218	02:20:12	1	1	4.0.10.0	1	13	FiveRightJ	FiveRightJ_buxueceshi	0	0	0	0	0	0	36	1	1096	0	6	刘	50pct	50pct	0	1	挡板.bmp	50pct	50pct	0	0	0	0	0	0
011218	02:20:12	1	1	4.0.10.0	1	14	FiveRightJ	FiveRightJ_xuexiceshi	0	0	0	0	0	0	33	0	707	0	5	同	50pct	50pct	0	1	挡板.bmp	50pct	50pct	0	0	0	0	0	0
011218	02:20:12	1	1	4.0.10.0	1	15	FiveRightJ	FiveRightJ_buxueceshi	0	0	0	0	0	0	36	1	585	0	3	庄	50pct	50pct	0	1	挡板.bmp	50pct	50pct	0	0	0	0	0	0
011218	02:20:12	1	1	4.0.10.0	1	16	FiveRightJ	FiveRightJ_buxueceshi	0	0	0	0	0	0	33	0	277	0	4	庆	50pct	50pct	0	1	挡板.bmp	50pct	50pct	0	0	0	0	0	0
011218	02:20:12	1	1	4.0.10.0	1	17	FiveRightJ	FiveRightJ_buxueceshi	0	0	0	0	0	0	36	1	248	0	2	冰	50pct	50pct	0	1	挡板.bmp	50pct	50pct	0	0	0	0	0	0
011218	02:20:12	1	1	4.0.10.0	1	18	FiveRightJ	FiveRightJ_buxueceshi	0	0	0	0	0	0	33	0	201	0	10	闭	50pct	50pct	1	1	挡板.bmp	50pct	50pct	1	0	0	0	0	0
011218	02:20:12	1	1	4.0.10.0	1	19	FiveRightJ	FiveRightJ_xuexiceshi	0	0	0	0	0	0	36	1	297	0	9	吸	50pct	50pct	0	1	挡板.bmp	50pct	50pct	0	0	0	0	0	0
011218	02:20:12	1	1	4.0.10.0	1	20	FiveRightJ	FiveRightJ_xuexiceshi	0	0	0	0	0	0	33	0	422	0	10	吗	50pct	50pct	0	1	挡板.bmp	50pct	50pct	0	0	0	0	0	0
011218	02:20:12	1	1	4.0.10.0	1	21	FiveRightJ	FiveRightJ_xuexiceshi	0	0	0	0	0	0	36	1	356	0	7	吃	50pct	50pct	0	1	挡板.bmp	50pct	50pct	0	0	0	0	0	0
011218	02:20:12	1	1	4.0.10.0	1	22	FiveRightJ	FiveRightJ_xuexiceshi	0	0	0	0	0	0	33	0	220	0	6	吊	50pct	50pct	1	1	挡板.bmp	50pct	50pct	1	0	0	0	0	0
011218	02:20:12	1	1	4.0.10.0	1	23	FiveRightJ	FiveRightJ_xuexiceshi	0	0	0	0	0	0	36	1	258	0	1	吓	50pct	50pct	1	1	挡板.bmp	50pct	50pct	1	0	0	0	0	0
011218	02:20:12	1	1	4.0.10.0	1	24	FiveRightJ	FiveRightJ_buxueceshi	0	0	0	0	0	0	33	0	218	0	5	亦	50pct	50pct	0	1	挡板.bmp	50pct	50pct	0	0	0	0	0	0
011218	02:20:12	1	1	4.0.10.0	1	25	FiveRightJ	FiveRightJ_buxueceshi	0	0	0	0	0	0	36	1	241	0	7	齐	50pct	50pct	0	1	挡板.bmp	50pct	50pct	0	0	0	0	0	0
011218	02:20:12	1	1	4.0.10.0	1	26	FiveRightJ	FiveRightJ_xuexiceshi	0	0	0	0	0	0	33	0	205	0	4	团	50pct	50pct	1	1	挡板.bmp	50pct	50pct	1	0	0	0	0	0
011218	02:20:12	1	1	4.0.10.0	1	27	FiveRightJ	FiveRightJ_buxueceshi	0	0	0	0	0	0	36	1	298	0	8	交	50pct	50pct	1	1	挡板.bmp	50pct	50pct	1	0	0	0	0	0
011218	02:20:12	1	1	4.0.10.0	1	28	FiveRightJ	FiveRightJ_xuexiceshi	0	0	0	0	0	0	33	0	239	0	2	虫	50pct	50pct	1	1	挡板.bmp	50pct	50pct	1	0	0	0	0	0
011218	02:20:12	1	1	4.0.10.0	1	29	FiveRightJ	FiveRightJ_xuexiceshi	0	0	0	0	0	0	36	1	253	0	3	曲	50pct	50pct	0	1	挡板.bmp	50pct	50pct	0	0	0	0	0	0
011218	02:20:12	1	1	4.0.10.0	1	30	FiveRightJ	FiveRightJ_xuexiceshi	0	0	0	0	0	0	33	0	193	0	8	因	50pct	50pct	0	1	挡板.bmp	50pct	50pct	0	0	0	0	0	0
011218	02:20:12	1	1	4.0.10.0	1	31	FiveRightJ	FiveRightJ_buxueceshi	0	0	0	0	0	0	36	1	192	0	9	妄	50pct	50pct	0	1	挡板.bmp	50pct	50pct	0	0	0	0	0	0
011218	02:21:29	1	1	4.0.10.0	1	2	NineRightJ	NineRightJ_xuexi	0	0	0	1000	0	0	0	0	900	0	1	+	50pct	50pct	0	1	挡板.bmp	50pct	50pct	49	4	仰	50	25	99	7	爷	50	75	99
011218	02:21:29	1	1	4.0.10.0	1	3	NineRightJ	NineRightJ_xuexi	0	0	0	1000	0	0	0	0	900	0	1	+	50pct	50pct	0	1	挡板.bmp	50pct	50pct	49	1	伤	50	25	99	9	创	50	75	99
011218	02:21:29	1	1	4.0.10.0	1	4	NineRightJ	NineRightJ_xuexi	0	0	0	1000	0	0	0	0	900	0	1	+	50pct	50pct	0	1	挡板.bmp	50pct	50pct	49	9	血	50	25	99	6	众	50	75	99
011218	02:21:29	1	1	4.0.10.0	1	5	NineRightJ	NineRightJ_xuexi	0	0	0	1000	0	0	0	0	900	0	1	+	50pct	50pct	0	1	挡板.bmp	50pct	50pct	49	7	伪	50	25	99	2	后	50	75	99
011218	02:21:29	1	1	4.0.10.0	1	6	NineRightJ	NineRightJ_xuexi	0	0	0	1000	0	0	0	0	900	0	1	+	50pct	50pct	0	1	挡板.bmp	50pct	50pct	49	5	仿	50	25	99	3	行	50	75	99
011218	02:21:29	1	1	4.0.10.0	1	7	NineRightJ	NineRightJ_xuexi	0	0	0	1000	0	0	0	0	900	0	1	+	50pct	50pct	0	1	挡板.bmp	50pct	50pct	49	6	伙	50	25	99	4	舟	50	75	99
011218	02:21:29	1	1	4.0.10.0	1	8	NineRightJ	NineRightJ_xuexi	0	0	0	1000	0	0	0	0	900	0	1	+	50pct	50pct	0	1	挡板.bmp	50pct	50pct	49	2	价	50	25	99	1	似	50	75	99
011218	02:21:29	1	1	4.0.10.0	1	9	NineRightJ	NineRightJ_xuexi	0	0	0	1000	0	0	0	0	900	0	1	+	50pct	50pct	0	1	挡板.bmp	50pct	50pct	49	8	自	50	25	99	5	全	50	75	99
011218	02:21:29	1	1	4.0.10.0	1	10	NineRightJ	NineRightJ_xuexi	0	0	0	1000	0	0	0	0	900	0	1	+	50pct	50pct	0	1	挡板.bmp	50pct	50pct	49	10	向	50	25	99	10	肌	50	75	99
011218	02:21:29	1	1	4.0.10.0	1	11	NineRightJ	NineRightJ_xuexi	0	0	0	1000	0	0	0	0	900	0	1	+	50pct	50pct	0	1	挡板.bmp	50pct	50pct	49	3	华	50	25	99	8	伞	50	75	99
011218	02:21:29	1	1	4.0.10.0	1	12	NineRightJ	NineRightJ_buxueceshi	0	0	0	0	0	0	36	1	763	0	8	争	50pct	50pct	0	1	挡板.bmp	50pct	50pct	483	0	0	0	0	0	0	0	0	0	0
011218	02:21:29	1	1	4.0.10.0	1	13	NineRightJ	NineRightJ_xuexiceshi	0	0	0	0	0	0	36	1	795	0	3	华	50pct	50pct	4	1	挡板.bmp	50pct	50pct	483	0	0	0	0	0	0	0	0	0	0
011218	02:21:29	1	1	4.0.10.0	1	14	NineRightJ	NineRightJ_xuexiceshi	0	0	0	0	0	0	33	0	621	0	8	自	50pct	50pct	0	1	挡板.bmp	50pct	50pct	483	0	0	0	0	0	0	0	0	0	0
011218	02:21:29	1	1	4.0.10.0	1	15	NineRightJ	NineRightJ_xuexiceshi	0	0	0	0	0	0	33	0	833	0	6	伙	50pct	50pct	0	1	挡板.bmp	50pct	50pct	483	0	0	0	0	0	0	0	0	0	0
011218	02:21:29	1	1	4.0.10.0	1	16	NineRightJ	NineRightJ_buxueceshi	0	0	0	0	0	0	36	1	568	0	10	壮	50pct	50pct	0	1	挡板.bmp	50pct	50pct	483	0	0	0	0	0	0	0	0	0	0
011218	02:21:29	1	1	4.0.10.0	1	17	NineRightJ	NineRightJ_xuexiceshi	0	0	0	0	0	0	33	0	501	0	10	向	50pct	50pct	0	1	挡板.bmp	50pct	50pct	483	0	0	0	0	0	0	0	0	0	0
011218	02:21:29	1	1	4.0.10.0	1	18	NineRightJ	NineRightJ_xuexiceshi	0	0	0	0	0	0	36	1	640	0	4	仰	50pct	50pct	0	1	挡板.bmp	50pct	50pct	483	0	0	0	0	0	0	0	0	0	0
011218	02:21:29	1	1	4.0.10.0	1	19	NineRightJ	NineRightJ_buxueceshi	0	0	0	0	0	0	Ctrl+'Q'	1	519	0	5	各	50pct	50pct	0	1	挡板.bmp	50pct	50pct	483	0	0	0	0	0	0	0	0	0	0
011218	02:37:27	1	1	4.0.10.0	1	2	lianxi	lianxi_xuexi	0	0	0	600	0	0	0	0	500	0	1	+	50pct	50pct	0	1	挡板.bmp	50pct	50pct	49	5	击	50	25	99	8	帅	50	75	99
011218	02:37:27	1	1	4.0.10.0	1	3	lianxi	lianxi_xuexi	0	0	0	600	0	0	0	0	500	0	1	+	50pct	50pct	0	1	挡板.bmp	50pct	50pct	49	9	左	50	25	99	6	北	50	75	99
011218	02:37:27	1	1	4.0.10.0	1	4	lianxi	lianxi_xuexi	0	0	0	600	0	0	0	0	500	0	1	+	50pct	50pct	0	1	挡板.bmp	50pct	50pct	49	1	玉	50	25	100	2	布	50	75	100
011218	02:37:27	1	1	4.0.10.0	1	5	lianxi	lianxi_xuexi	0	0	0	600	0	0	0	0	500	0	1	+	50pct	50pct	0	1	挡板.bmp	50pct	50pct	49	3	示	50	25	99	4	轧	50	75	99
011218	02:37:27	1	1	4.0.10.0	1	6	lianxi	lianxi_xuexi	0	0	0	600	0	0	0	0	500	0	1	+	50pct	50pct	0	1	挡板.bmp	50pct	50pct	49	8	丙	50	25	99	5	卡	50	75	99
011218	02:37:27	1	1	4.0.10.0	1	7	lianxi	lianxi_xuexi	0	0	0	600	0	0	0	0	500	0	1	+	50pct	50pct	0	1	挡板.bmp	50pct	50pct	49	4	未	50	25	99	10	目	50	75	99
011218	02:37:27	1	1	4.0.10.0	1	8	lianxi	lianxi_xuexi	0	0	0	600	0	0	0	0	500	0	1	+	50pct	50pct	0	1	挡板.bmp	50pct	50pct	49	6	扑	50	25	99	3	龙	50	75	99
011218	02:37:27	1	1	4.0.10.0	1	9	lianxi	lianxi_xuexi	0	0	0	600	0	0	0	0	500	0	1	+	50pct	50pct	0	1	挡板.bmp	50pct	50pct	49	7	古	50	25	99	9	旦	50	75	99
011218	02:37:27	1	1	4.0.10.0	1	10	lianxi	lianxi_xuexi	0	0	0	600	0	0	0	0	500	0	1	+	50pct	50pct	0	1	挡板.bmp	50pct	50pct	49	10	右	50	25	99	7	占	50	75	99
011218	02:37:27	1	1	4.0.10.0	1	11	lianxi	lianxi_xuexi	0	0	0	600	0	0	0	0	500	0	1	+	50pct	50pct	0	1	挡板.bmp	50pct	50pct	49	2	刊	50	25	99	1	石	50	75	99
011218	02:37:27	1	1	4.0.10.0	1	12	lianxi	lianxi_xuexiceshi	0	0	0	0	0	0	36	0	1758	0	9	左	50pct	50pct	0	1	挡板.bmp	50pct	50pct	33	0	0	0	0	0	0	0	0	0	0
011218	02:37:27	1	1	4.0.10.0	1	13	lianxi	lianxi_buxueceshi	0	0	0	0	0	0	Ctrl+'Q'	1	1295	0	3	田	50pct	50pct	0	1	挡板.bmp	50pct	50pct	33	0	0	0	0	0	0	0	0	0	0
011218	02:38:26	1	1	4.0.10.0	1	2	lianxi	lianxi_xuexi	0	0	0	600	0	0	0	0	500	0	1	+	50pct	50pct	0	1	挡板.bmp	50pct	50pct	49	4	未	50	25	99	10	目	50	75	99
011218	02:38:26	1	1	4.0.10.0	1	3	lianxi	lianxi_xuexi	0	0	0	600	0	0	0	0	500	0	1	+	50pct	50pct	0	1	挡板.bmp	50pct	50pct	49	2	刊	50	25	99	8	帅	50	75	99
011218	02:38:26	1	1	4.0.10.0	1	4	lianxi	lianxi_xuexi	0	0	0	600	0	0	0	0	500	0	1	+	50pct	50pct	0	1	挡板.bmp	50pct	50pct	49	7	古	50	25	99	4	轧	50	75	99
011218	02:38:26	1	1	4.0.10.0	1	5	lianxi	lianxi_xuexi	0	0	0	600	0	0	0	0	500	0	1	+	50pct	50pct	0	1	挡板.bmp	50pct	50pct	49	3	示	50	25	99	6	北	50	75	99
011218	02:38:26	1	1	4.0.10.0	1	6	lianxi	lianxi_xuexi	0	0	0	600	0	0	0	0	500	0	1	+	50pct	50pct	0	1	挡板.bmp	50pct	50pct	49	8	丙	50	25	99	2	布	50	75	99
011218	02:38:26	1	1	4.0.10.0	1	7	lianxi	lianxi_xuexi	0	0	0	600	0	0	0	0	500	0	1	+	50pct	50pct	0	1	挡板.bmp	50pct	50pct	51	9	左	50	25	99	1	石	50	75	99
011218	02:38:26	1	1	4.0.10.0	1	8	lianxi	lianxi_xuexi	0	0	0	600	0	0	0	0	500	0	1	+	50pct	50pct	0	1	挡板.bmp	50pct	50pct	49	6	扑	50	25	99	3	龙	50	75	99
011218	02:38:26	1	1	4.0.10.0	1	9	lianxi	lianxi_xuexi	0	0	0	600	0	0	0	0	500	0	1	+	50pct	50pct	0	1	挡板.bmp	50pct	50pct	49	1	玉	50	25	99	9	旦	50	75	99
011218	02:38:26	1	1	4.0.10.0	1	10	lianxi	lianxi_xuexi	0	0	0	600	0	0	0	0	500	0	1	+	50pct	50pct	0	1	挡板.bmp	50pct	50pct	49	10	右	50	25	101	5	卡	50	75	101
011218	02:38:26	1	1	4.0.10.0	1	11	lianxi	lianxi_xuexi	0	0	0	600	0	0	0	0	500	0	1	+	50pct	50pct	0	1	挡板.bmp	50pct	50pct	49	5	击	50	25	99	7	占	50	75	99
011218	02:38:26	1	1	4.0.10.0	1	12	lianxi	lianxi_buxueceshi	0	0	0	0	0	0	36	1	822	0	5	叫	50pct	50pct	0	1	挡板.bmp	50pct	50pct	33	0	0	0	0	0	0	0	0	0	0
011218	02:38:26	1	1	4.0.10.0	1	13	lianxi	lianxi_buxueceshi	0	0	0	0	0	0	33	0	96	0	4	史	50pct	50pct	0	1	挡板.bmp	50pct	50pct	33	0	0	0	0	0	0	0	0	0	0
011218	02:38:26	1	1	4.0.10.0	1	14	lianxi	lianxi_buxueceshi	0	0	0	0	0	0	36	1	1013	0	9	代	50pct	50pct	0	1	挡板.bmp	50pct	50pct	34	0	0	0	0	0	0	0	0	0	0
011218	02:38:26	1	1	4.0.10.0	1	15	lianxi	lianxi_xuexiceshi	0	0	0	0	0	0	33	1	219	0	6	扑	50pct	50pct	0	1	挡板.bmp	50pct	50pct	33	0	0	0	0	0	0	0	0	0	0
011218	02:38:26	1	1	4.0.10.0	1	16	lianxi	lianxi_xuexiceshi	0	0	0	0	0	0	36	0	115	0	1	玉	50pct	50pct	0	1	挡板.bmp	50pct	50pct	33	0	0	0	0	0	0	0	0	0	0
011218	02:38:26	1	1	4.0.10.0	1	17	lianxi	lianxi_xuexiceshi	0	0	0	0	0	0	33	1	133	0	2	刊	50pct	50pct	0	1	挡板.bmp	50pct	50pct	33	0	0	0	0	0	0	0	0	0	0
011218	02:38:26	1	1	4.0.10.0	1	18	lianxi	lianxi_buxueceshi	0	0	0	0	0	0	36	1	169	0	10	们	50pct	50pct	0	1	挡板.bmp	50pct	50pct	33	0	0	0	0	0	0	0	0	0	0
011218	02:38:26	1	1	4.0.10.0	1	19	lianxi	lianxi_buxueceshi	0	0	0	0	0	0	33	0	96	0	1	甲	50pct	50pct	0	1	挡板.bmp	50pct	50pct	33	0	0	0	0	0	0	0	0	0	0
011218	02:38:26	1	1	4.0.10.0	1	20	lianxi	lianxi_xuexiceshi	0	0	0	0	0	0	36	0	186	0	3	示	50pct	50pct	0	1	挡板.bmp	50pct	50pct	33	0	0	0	0	0	0	0	0	0	0
011218	02:38:26	1	1	4.0.10.0	1	21	lianxi	lianxi_buxueceshi	0	0	0	0	0	0	33	0	66	0	2	叮	50pct	50pct	0	1	挡板.bmp	50pct	50pct	34	0	0	0	0	0	0	0	0	0	0
011218	02:38:26	1	1	4.0.10.0	1	22	lianxi	lianxi_buxueceshi	0	0	0	0	0	0	36	1	164	0	7	付	50pct	50pct	0	1	挡板.bmp	50pct	50pct	34	0	0	0	0	0	0	0	0	0	0
011218	02:38:26	1	1	4.0.10.0	1	23	lianxi	lianxi_xuexiceshi	0	0	0	0	0	0	33	1	221	0	9	左	50pct	50pct	0	1	挡板.bmp	50pct	50pct	34	0	0	0	0	0	0	0	0	0	0
011218	02:38:26	1	1	4.0.10.0	1	24	lianxi	lianxi_buxueceshi	0	0	0	0	0	0	36	1	332	0	8	仗	50pct	50pct	0	1	挡板.bmp	50pct	50pct	33	0	0	0	0	0	0	0	0	0	0
011218	02:38:26	1	1	4.0.10.0	1	25	lianxi	lianxi_xuexiceshi	0	0	0	0	0	0	33	1	194	0	10	右	50pct	50pct	0	1	挡板.bmp	50pct	50pct	34	0	0	0	0	0	0	0	0	0	0
011218	02:38:26	1	1	4.0.10.0	1	26	lianxi	lianxi_buxueceshi	0	0	0	0	0	0	36	1	250	0	3	田	50pct	50pct	0	1	挡板.bmp	50pct	50pct	33	0	0	0	0	0	0	0	0	0	0
011218	02:38:26	1	1	4.0.10.0	1	27	lianxi	lianxi_xuexiceshi	0	0	0	0	0	0	33	1	109	0	5	击	50pct	50pct	1	1	挡板.bmp	50pct	50pct	33	0	0	0	0	0	0	0	0	0	0
011218	02:38:26	1	1	4.0.10.0	1	28	lianxi	lianxi_xuexiceshi	0	0	0	0	0	0	36	0	172	0	4	未	50pct	50pct	0	1	挡板.bmp	50pct	50pct	33	0	0	0	0	0	0	0	0	0	0
011218	02:38:26	1	1	4.0.10.0	1	29	lianxi	lianxi_xuexiceshi	0	0	0	0	0	0	33	1	108	0	8	丙	50pct	50pct	0	1	挡板.bmp	50pct	50pct	33	0	0	0	0	0	0	0	0	0	0
011218	02:38:26	1	1	4.0.10.0	1	30	lianxi	lianxi_buxueceshi	0	0	0	0	0	0	36	1	172	0	6	失	50pct	50pct	0	1	挡板.bmp	50pct	50pct	33	0	0	0	0	0	0	0	0	0	0
011218	02:38:26	1	1	4.0.10.0	1	31	lianxi	lianxi_xuexiceshi	0	0	0	0	0	0	33	1	141	0	7	古	50pct	50pct	0	1	挡板.bmp	50pct	50pct	33	0	0	0	0	0	0	0	0	0	0
011218	02:38:26	1	1	4.0.10.0	2	2	NineRightJ	NineRightJ_xuexi	0	0	0	1000	0	0	0	0	900	0	1	+	50pct	50pct	0	1	挡板.bmp	50pct	50pct	49	10	向	50	25	99	6	众	50	75	99
011218	02:38:26	1	1	4.0.10.0	2	3	NineRightJ	NineRightJ_xuexi	0	0	0	1000	0	0	0	0	900	0	1	+	50pct	50pct	0	1	挡板.bmp	50pct	50pct	49	5	仿	50	25	99	8	伞	50	75	99
011218	02:38:26	1	1	4.0.10.0	2	4	NineRightJ	NineRightJ_xuexi	0	0	0	1000	0	0	Ctrl+'Q'	1	463	0	1	+	50pct	50pct	0	1	挡板.bmp	50pct	50pct	49	7	伪	50	25	99	5	全	50	75	99
011218	02:45:42	1	1	4.0.10.0	1	2	lianxi	lianxi_xuexi	0	0	0	600	0	0	0	0	500	0	1	+	50pct	50pct	0	1	挡板.bmp	50pct	50pct	49	2	刊	50	25	99	6	北	50	75	99
011218	02:45:42	1	1	4.0.10.0	1	3	lianxi	lianxi_xuexi	0	0	0	600	0	0	0	0	500	0	1	+	50pct	50pct	0	1	挡板.bmp	50pct	50pct	49	7	古	50	25	99	9	旦	50	75	99
011218	02:45:42	1	1	4.0.10.0	1	4	lianxi	lianxi_xuexi	0	0	0	600	0	0	0	0	500	0	1	+	50pct	50pct	0	1	挡板.bmp	50pct	50pct	49	10	右	50	25	99	5	卡	50	75	99
011218	02:45:42	1	1	4.0.10.0	1	5	lianxi	lianxi_xuexi	0	0	0	600	0	0	0	0	500	0	1	+	50pct	50pct	0	1	挡板.bmp	50pct	50pct	49	6	扑	50	25	99	2	布	50	75	99
011218	02:45:42	1	1	4.0.10.0	1	6	lianxi	lianxi_xuexi	0	0	0	600	0	0	0	0	500	0	1	+	50pct	50pct	0	1	挡板.bmp	50pct	50pct	49	5	击	50	25	99	1	石	50	75	99
011218	02:45:42	1	1	4.0.10.0	1	7	lianxi	lianxi_xuexi	0	0	0	600	0	0	0	0	500	0	1	+	50pct	50pct	0	1	挡板.bmp	50pct	50pct	49	3	示	50	25	99	10	目	50	75	99
011218	02:45:42	1	1	4.0.10.0	1	8	lianxi	lianxi_xuexi	0	0	0	600	0	0	0	0	500	0	1	+	50pct	50pct	0	1	挡板.bmp	50pct	50pct	49	1	玉	50	25	99	8	帅	50	75	99
011218	02:45:42	1	1	4.0.10.0	1	9	lianxi	lianxi_xuexi	0	0	0	600	0	0	0	0	500	0	1	+	50pct	50pct	0	1	挡板.bmp	50pct	50pct	50	9	左	50	25	99	4	轧	50	75	99
011218	02:45:42	1	1	4.0.10.0	1	10	lianxi	lianxi_xuexi	0	0	0	600	0	0	0	0	500	0	1	+	50pct	50pct	0	1	挡板.bmp	50pct	50pct	49	4	未	50	25	99	3	龙	50	75	99
011218	02:45:42	1	1	4.0.10.0	1	11	lianxi	lianxi_xuexi	0	0	0	600	0	0	0	0	500	0	1	+	50pct	50pct	0	1	挡板.bmp	50pct	50pct	49	8	丙	50	25	99	7	占	50	75	99
011218	02:45:42	1	1	4.0.10.0	1	12	lianxi	lianxi_buxueceshi	0	0	0	0	0	0	36	1	1001	0	2	叮	50pct	50pct	0	1	挡板.bmp	50pct	50pct	33	0	0	0	0	0	0	0	0	0	0
011218	02:45:42	1	1	4.0.10.0	1	13	lianxi	lianxi_buxueceshi	0	0	0	0	0	0	36	1	1065	0	1	甲	50pct	50pct	0	1	挡板.bmp	50pct	50pct	33	0	0	0	0	0	0	0	0	0	0
011218	02:45:42	1	1	4.0.10.0	1	14	lianxi	lianxi_buxueceshi	0	0	0	0	0	0	33	0	126	0	3	田	50pct	50pct	0	1	挡板.bmp	50pct	50pct	33	0	0	0	0	0	0	0	0	0	0
011218	02:45:42	1	1	4.0.10.0	1	15	lianxi	lianxi_buxueceshi	0	0	0	0	0	0	36	1	78	0	6	失	50pct	50pct	0	1	挡板.bmp	50pct	50pct	33	0	0	0	0	0	0	0	0	0	0
011218	02:45:42	1	1	4.0.10.0	1	16	lianxi	lianxi_buxueceshi	0	0	0	0	0	0	33	0	79	0	4	史	50pct	50pct	1	1	挡板.bmp	50pct	50pct	33	0	0	0	0	0	0	0	0	0	0
011218	02:45:42	1	1	4.0.10.0	1	17	lianxi	lianxi_xuexiceshi	0	0	0	0	0	0	36	0	79	0	4	未	50pct	50pct	0	1	挡板.bmp	50pct	50pct	33	0	0	0	0	0	0	0	0	0	0
011218	02:45:42	1	1	4.0.10.0	1	18	lianxi	lianxi_xuexiceshi	0	0	0	0	0	0	33	1	64	0	9	左	50pct	50pct	0	1	挡板.bmp	50pct	50pct	33	0	0	0	0	0	0	0	0	0	0
011218	02:45:42	1	1	4.0.10.0	1	19	lianxi	lianxi_xuexiceshi	0	0	0	0	0	0	36	0	76	0	2	刊	50pct	50pct	0	1	挡板.bmp	50pct	50pct	33	0	0	0	0	0	0	0	0	0	0
011218	02:45:42	1	1	4.0.10.0	1	20	lianxi	lianxi_buxueceshi	0	0	0	0	0	0	33	0	45	0	8	仗	50pct	50pct	0	1	挡板.bmp	50pct	50pct	33	0	0	0	0	0	0	0	0	0	0
011218	02:45:42	1	1	4.0.10.0	1	21	lianxi	lianxi_xuexiceshi	0	0	0	0	0	0	36	0	80	0	1	玉	50pct	50pct	0	1	挡板.bmp	50pct	50pct	33	0	0	0	0	0	0	0	0	0	0
011218	02:45:42	1	1	4.0.10.0	1	22	lianxi	lianxi_xuexiceshi	0	0	0	0	0	0	33	1	21	0	8	丙	50pct	50pct	0	1	挡板.bmp	50pct	50pct	33	0	0	0	0	0	0	0	0	0	0
011218	02:45:42	1	1	4.0.10.0	1	23	lianxi	lianxi_buxueceshi	0	0	0	0	0	0	36	1	76	0	10	们	50pct	50pct	0	1	挡板.bmp	50pct	50pct	33	0	0	0	0	0	0	0	0	0	0
011218	02:45:42	1	1	4.0.10.0	1	24	lianxi	lianxi_buxueceshi	0	0	0	0	0	0	33	0	81	0	7	付	50pct	50pct	0	1	挡板.bmp	50pct	50pct	33	0	0	0	0	0	0	0	0	0	0
011218	02:45:42	1	1	4.0.10.0	1	25	lianxi	lianxi_buxueceshi	0	0	0	0	0	0	36	1	18	0	9	代	50pct	50pct	0	1	挡板.bmp	50pct	50pct	33	0	0	0	0	0	0	0	0	0	0
011218	02:45:42	1	1	4.0.10.0	1	26	lianxi	lianxi_xuexiceshi	0	0	0	0	0	0	33	1	46	0	3	示	50pct	50pct	0	1	挡板.bmp	50pct	50pct	34	0	0	0	0	0	0	0	0	0	0
011218	02:45:42	1	1	4.0.10.0	1	27	lianxi	lianxi_xuexiceshi	0	0	0	0	0	0	36	0	77	0	7	古	50pct	50pct	0	1	挡板.bmp	50pct	50pct	33	0	0	0	0	0	0	0	0	0	0
011218	02:45:42	1	1	4.0.10.0	1	28	lianxi	lianxi_buxueceshi	0	0	0	0	0	0	33	0	60	0	5	叫	50pct	50pct	0	1	挡板.bmp	50pct	50pct	33	0	0	0	0	0	0	0	0	0	0
011218	02:45:42	1	1	4.0.10.0	1	29	lianxi	lianxi_xuexiceshi	0	0	0	0	0	0	36	0	180	0	6	扑	50pct	50pct	0	1	挡板.bmp	50pct	50pct	33	0	0	0	0	0	0	0	0	0	0
011218	02:45:42	1	1	4.0.10.0	1	30	lianxi	lianxi_xuexiceshi	0	0	0	0	0	0	33	1	114	0	5	击	50pct	50pct	0	1	挡板.bmp	50pct	50pct	33	0	0	0	0	0	0	0	0	0	0
011218	02:45:42	1	1	4.0.10.0	1	31	lianxi	lianxi_xuexiceshi	0	0	0	0	0	0	33	1	63	0	10	右	50pct	50pct	0	1	挡板.bmp	50pct	50pct	33	0	0	0	0	0	0	0	0	0	0
011218	02:45:42	1	1	4.0.10.0	2	2	NineRightJ	NineRightJ_xuexi	0	0	0	1000	0	0	0	0	900	0	1	+	50pct	50pct	1	1	挡板.bmp	50pct	50pct	49	7	伪	50	75	99	5	全	50	25	99
011218	02:45:42	1	1	4.0.10.0	2	3	NineRightJ	NineRightJ_xuexi	0	0	0	1000	0	0	0	0	900	0	1	+	50pct	50pct	0	1	挡板.bmp	50pct	50pct	51	4	仰	50	75	99	2	后	50	25	99
011218	02:45:42	1	1	4.0.10.0	2	4	NineRightJ	NineRightJ_xuexi	0	0	0	1000	0	0	0	0	900	0	1	+	50pct	50pct	0	1	挡板.bmp	50pct	50pct	49	9	血	50	75	99	3	行	50	25	99
011218	02:45:42	1	1	4.0.10.0	2	5	NineRightJ	NineRightJ_xuexi	0	0	0	1000	0	0	0	0	900	0	1	+	50pct	50pct	0	1	挡板.bmp	50pct	50pct	49	2	价	50	75	99	6	众	50	25	99
011218	02:45:42	1	1	4.0.10.0	2	6	NineRightJ	NineRightJ_xuexi	0	0	0	1000	0	0	0	0	900	0	1	+	50pct	50pct	0	1	挡板.bmp	50pct	50pct	49	6	伙	50	75	101	8	伞	50	25	101
011218	02:45:42	1	1	4.0.10.0	2	7	NineRightJ	NineRightJ_xuexi	0	0	0	1000	0	0	0	0	900	0	1	+	50pct	50pct	0	1	挡板.bmp	50pct	50pct	49	3	华	50	75	99	7	爷	50	25	99
011218	02:45:42	1	1	4.0.10.0	2	8	NineRightJ	NineRightJ_xuexi	0	0	0	1000	0	0	0	0	900	0	1	+	50pct	50pct	0	1	挡板.bmp	50pct	50pct	49	10	向	50	75	99	1	似	50	25	99
011218	02:45:42	1	1	4.0.10.0	2	9	NineRightJ	NineRightJ_xuexi	0	0	0	1000	0	0	0	0	900	0	1	+	50pct	50pct	0	1	挡板.bmp	50pct	50pct	49	5	仿	50	75	99	9	创	50	25	99
011218	02:45:42	1	1	4.0.10.0	2	10	NineRightJ	NineRightJ_xuexi	0	0	0	1000	0	0	0	0	900	0	1	+	50pct	50pct	0	1	挡板.bmp	50pct	50pct	51	1	伤	50	75	99	10	肌	50	25	99
011218	02:45:42	1	1	4.0.10.0	2	11	NineRightJ	NineRightJ_xuexi	0	0	0	1000	0	0	0	0	900	0	1	+	50pct	50pct	0	1	挡板.bmp	50pct	50pct	49	8	自	50	75	99	4	舟	50	25	99
011218	02:45:42	1	1	4.0.10.0	2	12	NineRightJ	NineRightJ_xuexiceshi	0	0	0	0	0	0	36	1	1983	0	9	血	50pct	50pct	0	1	挡板.bmp	50pct	50pct	483	0	0	0	0	0	0	0	0	0	0
011218	02:45:42	1	1	4.0.10.0	2	13	NineRightJ	NineRightJ_xuexiceshi	0	0	0	0	0	0	33	0	80	0	10	向	50pct	50pct	0	1	挡板.bmp	50pct	50pct	483	0	0	0	0	0	0	0	0	0	0
011218	02:45:42	1	1	4.0.10.0	2	14	NineRightJ	NineRightJ_buxueceshi	0	0	0	0	0	0	36	0	212	0	6	名	50pct	50pct	0	1	挡板.bmp	50pct	50pct	483	0	0	0	0	0	0	0	0	0	0
011218	02:45:42	1	1	4.0.10.0	2	15	NineRightJ	NineRightJ_xuexiceshi	0	0	0	0	0	0	33	0	151	0	6	伙	50pct	50pct	0	1	挡板.bmp	50pct	50pct	483	0	0	0	0	0	0	0	0	0	0
011218	02:45:42	1	1	4.0.10.0	2	16	NineRightJ	NineRightJ_xuexiceshi	0	0	0	0	0	0	36	1	80	0	5	仿	50pct	50pct	0	1	挡板.bmp	50pct	50pct	483	0	0	0	0	0	0	0	0	0	0
